#time,accel_x,accel_y,accel_z
69841.444713,-222.061783,0.000000,10418.898773
69841.445025,444.123565,-296.082377,10418.898773
69841.445336,0.000000,0.000000,10495.508323
69841.445647,-518.144159,-370.102971,10342.289223
69841.445958,148.041188,-296.082377,10725.336972
69841.446269,296.082377,148.041188,10342.289223
69841.446580,296.082377,0.000000,10418.898773
69841.446892,0.000000,0.000000,10418.898773
69841.447203,74.020594,0.000000,10189.070123
69841.447514,74.020594,0.000000,9959.241474
69841.447825,518.144159,0.000000,10418.898773
69841.448136,-148.041188,-148.041188,10495.508323
69841.448448,-592.164754,0.000000,10878.556072
69841.448759,0.000000,148.041188,10342.289223
69841.449070,296.082377,222.061783,10189.070123
69841.449381,0.000000,-296.082377,10265.679673
69841.449692,0.000000,-370.102971,10342.289223
69841.450004,0.000000,148.041188,10495.508323
69841.450315,74.020594,-148.041188,10265.679673
69841.450626,444.123565,0.000000,10265.679673
69841.450937,148.041188,0.000000,10342.289223
69841.451248,0.000000,0.000000,10495.508323
69841.451560,0.000000,0.000000,10342.289223
69841.451871,74.020594,0.000000,10572.117872
69841.452182,518.144159,74.020594,10725.336972
69841.452493,-222.061783,148.041188,10265.679673
69841.452804,592.164754,-814.226536,9806.022374
69841.453115,0.000000,-148.041188,10035.851024
69841.453427,0.000000,74.020594,10648.727422
69841.453738,0.000000,74.020594,10342.289223
69841.454049,444.123565,-222.061783,10495.508323
69841.454360,0.000000,-222.061783,10265.679673
69841.454671,0.000000,0.000000,10418.898773
69841.454983,0.000000,0.000000,10495.508323
69841.455294,148.041188,0.000000,10189.070123
69841.455605,74.020594,0.000000,10418.898773
69841.455916,74.020594,-222.061783,10495.508323
69841.456227,666.185348,296.082377,11108.384721
69841.456539,0.000000,0.000000,9959.241474
69841.456850,74.020594,-148.041188,10495.508323
69841.457161,0.000000,0.000000,10418.898773
69841.457472,0.000000,0.000000,10342.289223
69841.457783,222.061783,-666.185348,10725.336972
69841.458095,-592.164754,74.020594,9729.412825
69841.458406,296.082377,-148.041188,10648.727422
69841.458717,0.000000,0.000000,10265.679673
69841.459028,370.102971,148.041188,10189.070123
69841.459339,0.000000,0.000000,10342.289223
69841.459651,0.000000,74.020594,10342.289223
69841.459962,0.000000,0.000000,10189.070123
69841.460273,0.000000,0.000000,10418.898773
69841.460584,592.164754,0.000000,10495.508323
69841.460895,-296.082377,0.000000,10035.851024
69841.461206,-444.123565,0.000000,10648.727422
69841.461518,148.041188,0.000000,10418.898773
69841.461829,0.000000,-148.041188,10418.898773
69841.462140,74.020594,-370.102971,10265.679673
69841.462451,74.020594,0.000000,10265.679673
69841.462762,222.061783,0.000000,10265.679673
69841.463074,-148.041188,0.000000,10418.898773
69841.463385,-444.123565,0.000000,10418.898773
69841.463696,74.020594,148.041188,9882.631924
69841.464007,0.000000,0.000000,9806.022374
69841.464318,296.082377,0.000000,10648.727422
69841.464630,74.020594,-222.061783,10495.508323
69841.464941,0.000000,0.000000,10648.727422
69841.465252,222.061783,-148.041188,10418.898773
69841.465563,222.061783,-222.061783,10189.070123
69841.465874,222.061783,0.000000,10035.851024
69841.466186,148.041188,0.000000,10572.117872
69841.466497,-296.082377,296.082377,10418.898773
69841.466808,444.123565,0.000000,10495.508323
69841.467119,-518.144159,296.082377,10418.898773
69841.467430,-222.061783,0.000000,10418.898773
69841.467742,74.020594,0.000000,10648.727422
69841.468053,0.000000,148.041188,10572.117872
69841.468364,-370.102971,0.000000,10495.508323
69841.468675,74.020594,0.000000,10265.679673
69841.468986,296.082377,74.020594,10878.556072
69841.469297,74.020594,0.000000,10265.679673
69841.469609,0.000000,-148.041188,10265.679673
69841.469920,74.020594,-296.082377,10035.851024
69841.470231,0.000000,0.000000,10265.679673
69841.470542,444.123565,0.000000,10418.898773
69841.470853,-222.061783,148.041188,10418.898773
69841.471165,-222.061783,-296.082377,10725.336972
69841.471476,148.041188,0.000000,10572.117872
69841.471787,74.020594,296.082377,10342.289223
69841.472098,0.000000,0.000000,10035.851024
69841.472409,148.041188,0.000000,10342.289223
69841.472721,0.000000,74.020594,10112.460574
69841.473032,74.020594,0.000000,10418.898773
69841.473343,592.164754,74.020594,10878.556072
69841.473654,74.020594,-740.205942,10418.898773
69841.473965,-296.082377,370.102971,10418.898773
69841.474277,0.000000,74.020594,10342.289223
69841.474588,-296.082377,74.020594,10418.898773
69841.474899,74.020594,-370.102971,10342.289223
69841.475210,74.020594,0.000000,10418.898773
69841.475521,0.000000,74.020594,10265.679673
69841.475832,296.082377,148.041188,10265.679673
69841.476144,-222.061783,0.000000,10418.898773
69841.476455,0.000000,-592.164754,10342.289223
69841.476766,-74.020594,814.226536,9806.022374
69841.477077,-74.020594,-148.041188,10035.851024
69841.477388,0.000000,0.000000,10495.508323
69841.477700,-222.061783,370.102971,10265.679673
69841.478011,0.000000,-148.041188,10189.070123
69841.478322,-296.082377,-222.061783,10495.508323
69841.478633,222.061783,0.000000,10265.679673
69841.478944,74.020594,222.061783,10342.289223
69841.479256,-222.061783,-518.144159,9959.241474
69841.479567,222.061783,-592.164754,10495.508323
69841.479878,296.082377,0.000000,9729.412825
69841.480189,222.061783,0.000000,10342.289223
69841.480500,222.061783,222.061783,10265.679673
69841.480812,148.041188,0.000000,10418.898773
69841.481123,222.061783,0.000000,10342.289223
69841.481434,296.082377,0.000000,10418.898773
69841.481745,-222.061783,0.000000,10418.898773
69841.482056,0.000000,-518.144159,10035.851024
69841.482368,296.082377,-518.144159,9806.022374
69841.482679,0.000000,222.061783,10112.460574
69841.482990,0.000000,0.000000,10112.460574
69841.483301,74.020594,0.000000,10418.898773
69841.483612,0.000000,0.000000,10265.679673
69841.483923,296.082377,0.000000,10189.070123
69841.484235,0.000000,-148.041188,10112.460574
69841.484546,-222.061783,-148.041188,10495.508323
69841.484857,0.000000,0.000000,10495.508323
69841.485168,74.020594,0.000000,10342.289223
69841.485479,-148.041188,-370.102971,10342.289223
69841.485791,0.000000,0.000000,10418.898773
69841.486102,222.061783,0.000000,9806.022374
69841.486413,-444.123565,0.000000,10725.336972
69841.486724,296.082377,0.000000,10955.165621
69841.487035,222.061783,0.000000,10112.460574
69841.487347,0.000000,148.041188,10265.679673
69841.487658,148.041188,0.000000,10418.898773
69841.487969,0.000000,0.000000,10189.070123
69841.488280,0.000000,-148.041188,10265.679673
69841.488591,222.061783,222.061783,10495.508323
69841.488903,296.082377,222.061783,11184.994271
69841.489214,-222.061783,-74.020594,10572.117872
69841.489525,0.000000,-148.041188,10265.679673
69841.489836,518.144159,296.082377,10418.898773
69841.490147,0.000000,-222.061783,10189.070123
69841.490459,0.000000,-518.144159,10572.117872
69841.490770,0.000000,74.020594,10265.679673
69841.491081,0.000000,0.000000,10265.679673
69841.491392,74.020594,0.000000,10342.289223
69841.491703,296.082377,0.000000,10112.460574
69841.492014,296.082377,-444.123565,10112.460574
69841.492326,-518.144159,814.226536,10725.336972
69841.492637,222.061783,-296.082377,10342.289223
69841.492948,74.020594,0.000000,10342.289223
69841.493259,370.102971,-370.102971,10418.898773
69841.493570,0.000000,0.000000,10495.508323
69841.493882,0.000000,-222.061783,10495.508323
69841.494193,0.000000,0.000000,10342.289223
69841.494504,0.000000,-222.061783,9882.631924
69841.494815,0.000000,-592.164754,10342.289223
69841.495126,592.164754,-296.082377,9882.631924
69841.495438,296.082377,222.061783,10112.460574
69841.495749,592.164754,222.061783,10418.898773
69841.496060,148.041188,0.000000,10189.070123
69841.496371,0.000000,0.000000,10342.289223
69841.496682,0.000000,0.000000,10342.289223
69841.496994,148.041188,0.000000,10342.289223
69841.497305,-148.041188,0.000000,10495.508323
69841.497616,740.205942,0.000000,10112.460574
69841.497927,-74.020594,74.020594,10112.460574
69841.498238,-592.164754,296.082377,10955.165621
69841.498549,0.000000,370.102971,9882.631924
69841.498861,-222.061783,0.000000,10342.289223
69841.499172,0.000000,0.000000,10495.508323
69841.499483,296.082377,0.000000,10189.070123
69841.499794,148.041188,74.020594,10342.289223
69841.500105,0.000000,0.000000,10418.898773
69841.500416,148.041188,222.061783,10418.898773
69841.500727,222.061783,0.000000,10035.851024
69841.501038,148.041188,0.000000,10112.460574
69841.501349,0.000000,0.000000,10112.460574
69841.501660,-148.041188,0.000000,10418.898773
69841.501971,0.000000,0.000000,10035.851024
69841.502282,0.000000,148.041188,10342.289223
69841.502593,296.082377,-148.041188,10265.679673
69841.502904,0.000000,-370.102971,10342.289223
69841.503215,0.000000,222.061783,10112.460574
69841.503526,370.102971,148.041188,10189.070123
69841.503837,74.020594,0.000000,9652.803275
69841.504148,444.123565,0.000000,10342.289223
69841.504460,74.020594,74.020594,10035.851024
69841.504771,0.000000,666.185348,10418.898773
69841.505082,444.123565,0.000000,10112.460574
69841.505393,-148.041188,-370.102971,9729.412825
69841.505704,0.000000,0.000000,10112.460574
69841.506015,0.000000,0.000000,10035.851024
69841.506326,0.000000,0.000000,10265.679673
69841.506637,0.000000,0.000000,10342.289223
69841.506948,74.020594,0.000000,10112.460574
69841.507259,296.082377,0.000000,10112.460574
69841.507570,222.061783,-74.020594,10342.289223
69841.507881,74.020594,-148.041188,10955.165621
69841.508192,0.000000,0.000000,10648.727422
69841.508503,370.102971,74.020594,10342.289223
69841.508814,74.020594,0.000000,10342.289223
69841.509125,0.000000,0.000000,10035.851024
69841.509436,0.000000,0.000000,10418.898773
69841.509747,0.000000,0.000000,10418.898773
69841.510058,74.020594,0.000000,10265.679673
69841.510369,0.000000,-296.082377,10189.070123
69841.510680,370.102971,0.000000,10342.289223
69841.510991,592.164754,0.000000,11108.384721
69841.511302,-222.061783,0.000000,10418.898773
69841.511613,0.000000,-148.041188,10265.679673
69841.511924,666.185348,0.000000,10265.679673
69841.512235,0.000000,0.000000,10265.679673
69841.512546,-222.061783,0.000000,10418.898773
69841.512857,-148.041188,-222.061783,10418.898773
69841.513168,148.041188,0.000000,10265.679673
69841.513479,-296.082377,0.000000,10495.508323
69841.513790,-148.041188,0.000000,10572.117872
69841.514101,444.123565,0.000000,10495.508323
69841.514412,222.061783,0.000000,10189.070123
69841.514723,0.000000,222.061783,10342.289223
69841.515034,148.041188,0.000000,10035.851024
69841.515345,0.000000,0.000000,10418.898773
69841.515656,222.061783,0.000000,10342.289223
69841.515967,148.041188,-148.041188,10189.070123
69841.516278,74.020594,0.000000,10955.165621
69841.516589,148.041188,148.041188,10495.508323
69841.516900,-444.123565,-148.041188,9806.022374
69841.517211,0.000000,-518.144159,10955.165621
69841.517522,148.041188,-148.041188,10495.508323
69841.517833,148.041188,0.000000,10189.070123
69841.518144,74.020594,0.000000,10112.460574
69841.518455,0.000000,0.000000,10189.070123
69841.518766,0.000000,0.000000,10265.679673
69841.519077,0.000000,148.041188,10189.070123
69841.519388,148.041188,-222.061783,10265.679673
69841.519699,0.000000,-222.061783,10418.898773
69841.520010,-296.082377,0.000000,10495.508323
69841.520321,296.082377,148.041188,10572.117872
69841.520632,740.205942,0.000000,10189.070123
69841.520943,-74.020594,-296.082377,10648.727422
69841.521254,-666.185348,-148.041188,10418.898773
69841.521565,0.000000,222.061783,10265.679673
69841.521876,814.226536,444.123565,10572.117872
69841.522187,0.000000,-296.082377,10112.460574
69841.522498,148.041188,-222.061783,10265.679673
69841.522809,296.082377,74.020594,10418.898773
69841.523120,0.000000,0.000000,10265.679673
69841.523432,0.000000,148.041188,10342.289223
69841.523743,-666.185348,74.020594,9959.241474
69841.524054,-814.226536,0.000000,11261.603821
69841.524365,0.000000,0.000000,10265.679673
69841.524676,0.000000,0.000000,10495.508323
69841.524987,74.020594,0.000000,10265.679673
69841.525298,370.102971,0.000000,10035.851024
69841.525609,0.000000,148.041188,10725.336972
69841.525920,0.000000,0.000000,10648.727422
69841.526231,888.247130,0.000000,10878.556072
69841.526542,148.041188,0.000000,10342.289223
69841.526853,0.000000,222.061783,10342.289223
69841.527164,0.000000,-666.185348,10189.070123
69841.527475,-222.061783,0.000000,11108.384721
69841.527786,222.061783,74.020594,10342.289223
69841.528097,0.000000,0.000000,10035.851024
69841.528408,-222.061783,-296.082377,10189.070123
69841.528719,0.000000,-148.041188,10418.898773
69841.529030,666.185348,222.061783,10342.289223
69841.529341,0.000000,592.164754,9499.584175
69841.529652,0.000000,0.000000,10112.460574
69841.529963,148.041188,0.000000,10342.289223
69841.530274,370.102971,148.041188,10265.679673
69841.530585,0.000000,222.061783,10265.679673
69841.530896,0.000000,0.000000,10342.289223
69841.531207,74.020594,0.000000,10342.289223
69841.531518,0.000000,-148.041188,10189.070123
69841.531829,-592.164754,296.082377,10648.727422
69841.532140,-296.082377,-370.102971,10418.898773
69841.532451,0.000000,-148.041188,10878.556072
69841.532762,0.000000,222.061783,10265.679673
69841.533073,148.041188,0.000000,10035.851024
69841.533384,0.000000,-296.082377,10342.289223
69841.533695,222.061783,0.000000,10342.289223
69841.534006,518.144159,148.041188,10342.289223
69841.534317,148.041188,0.000000,10418.898773
69841.534628,0.000000,0.000000,10418.898773
69841.534939,0.000000,444.123565,10342.289223
69841.535250,-148.041188,666.185348,10035.851024
69841.535561,0.000000,222.061783,10189.070123
69841.535872,0.000000,0.000000,10112.460574
69841.536183,0.000000,370.102971,10418.898773
69841.536494,-148.041188,74.020594,10572.117872
69841.536805,296.082377,0.000000,10112.460574
69841.537116,74.020594,-296.082377,9959.241474
69841.537427,148.041188,0.000000,9576.193725
69841.537738,518.144159,222.061783,10189.070123
69841.538049,0.000000,0.000000,10265.679673
69841.538360,0.000000,-148.041188,10418.898773
69841.538671,148.041188,0.000000,10189.070123
69841.538982,-74.020594,666.185348,10418.898773
69841.539293,-370.102971,0.000000,10725.336972
69841.539604,-296.082377,148.041188,11031.775171
69841.539915,0.000000,0.000000,10572.117872
69841.540226,370.102971,0.000000,10495.508323
69841.540537,222.061783,0.000000,10035.851024
69841.540848,0.000000,0.000000,10189.070123
69841.541159,222.061783,0.000000,10035.851024
69841.541470,0.000000,148.041188,10342.289223
69841.541781,592.164754,74.020594,10112.460574
69841.542092,-592.164754,222.061783,10112.460574
69841.542403,0.000000,0.000000,10112.460574
69841.542715,296.082377,518.144159,10648.727422
69841.543026,0.000000,0.000000,10495.508323
69841.543337,222.061783,-148.041188,10342.289223
69841.543648,74.020594,0.000000,10265.679673
69841.543959,148.041188,0.000000,10342.289223
69841.544270,74.020594,-148.041188,10265.679673
69841.544581,148.041188,0.000000,10035.851024
69841.544892,222.061783,518.144159,9806.022374
69841.545203,592.164754,-666.185348,10878.556072
69841.545514,592.164754,-518.144159,9652.803275
69841.545825,0.000000,-148.041188,10265.679673
69841.546136,0.000000,148.041188,10265.679673
69841.546447,0.000000,74.020594,10342.289223
69841.546758,-148.041188,-296.082377,10495.508323
69841.547069,0.000000,-370.102971,10342.289223
69841.547380,0.000000,0.000000,10878.556072
69841.547691,222.061783,-296.082377,10418.898773
69841.548002,222.061783,-518.144159,10878.556072
69841.548313,444.123565,222.061783,10342.289223
69841.548624,0.000000,74.020594,10189.070123
69841.548935,148.041188,0.000000,10878.556072
69841.549246,222.061783,74.020594,10342.289223
69841.549557,0.000000,0.000000,10189.070123
69841.549868,0.000000,0.000000,10342.289223
69841.550179,0.000000,0.000000,10265.679673
69841.550490,0.000000,0.000000,11031.775171
69841.550801,0.000000,-148.041188,10265.679673
69841.551112,444.123565,222.061783,9806.022374
69841.551423,148.041188,0.000000,10495.508323
69841.551734,222.061783,-222.061783,11031.775171
69841.552045,74.020594,74.020594,10112.460574
69841.552356,0.000000,0.000000,10112.460574
69841.552667,148.041188,0.000000,10418.898773
69841.552978,0.000000,74.020594,10418.898773
69841.553289,148.041188,0.000000,10265.679673
69841.553600,0.000000,-444.123565,10418.898773
69841.553911,-148.041188,0.000000,10342.289223
69841.554222,74.020594,148.041188,10342.289223
69841.554533,148.041188,148.041188,10035.851024
69841.554844,222.061783,-296.082377,10035.851024
69841.555155,0.000000,0.000000,9959.241474
69841.555466,1036.288319,-666.185348,10495.508323
69841.555777,74.020594,0.000000,10418.898773
69841.556088,0.000000,0.000000,10265.679673
69841.556399,0.000000,-296.082377,10342.289223
69841.556710,0.000000,74.020594,10418.898773
69841.557021,74.020594,0.000000,10342.289223
69841.557332,-148.041188,-296.082377,10418.898773
69841.557643,-370.102971,74.020594,10265.679673
69841.557954,666.185348,444.123565,10418.898773
69841.558265,0.000000,74.020594,10189.070123
69841.558576,0.000000,0.000000,10265.679673
69841.558887,74.020594,0.000000,10418.898773
69841.559198,0.000000,0.000000,10265.679673
69841.559509,0.000000,0.000000,10495.508323
69841.559820,296.082377,0.000000,10342.289223
69841.560131,0.000000,-148.041188,10112.460574
69841.560442,-74.020594,0.000000,10342.289223
69841.560753,-592.164754,0.000000,10725.336972
69841.561064,0.000000,0.000000,10342.289223
69841.561375,-370.102971,296.082377,10648.727422
69841.561687,0.000000,74.020594,10495.508323
69841.561998,74.020594,-222.061783,10265.679673
69841.562309,74.020594,-148.041188,10265.679673
69841.562620,296.082377,370.102971,10342.289223
69841.562931,222.061783,74.020594,10265.679673
69841.563242,0.000000,370.102971,10418.898773
69841.563553,222.061783,-222.061783,10265.679673
69841.563864,444.123565,370.102971,10112.460574
69841.564175,0.000000,74.020594,10265.679673
69841.564486,-370.102971,0.000000,9806.022374
69841.564797,0.000000,-148.041188,10342.289223
69841.565108,0.000000,0.000000,10342.289223
69841.565419,0.000000,0.000000,10418.898773
69841.565730,222.061783,0.000000,10265.679673
69841.566041,-444.123565,0.000000,9729.412825
69841.566352,0.000000,-148.041188,9959.241474
69841.566663,444.123565,518.144159,11031.775171
69841.566974,444.123565,0.000000,10418.898773
69841.567285,74.020594,0.000000,10112.460574
69841.567596,0.000000,74.020594,10418.898773
69841.567907,296.082377,0.000000,10495.508323
69841.568218,74.020594,0.000000,10189.070123
69841.568529,296.082377,0.000000,10112.460574
69841.568840,-370.102971,0.000000,10572.117872
69841.569151,0.000000,0.000000,10265.679673
69841.569462,-222.061783,0.000000,10189.070123
69841.569773,0.000000,0.000000,10418.898773
69841.570084,74.020594,0.000000,10342.289223
69841.570395,74.020594,-74.020594,10418.898773
69841.570706,74.020594,740.205942,10342.289223
69841.571017,74.020594,0.000000,10648.727422
69841.571328,296.082377,222.061783,10572.117872
69841.571639,222.061783,74.020594,10265.679673
69841.571950,0.000000,-222.061783,10189.070123
69841.572261,0.000000,0.000000,10112.460574
69841.572572,0.000000,0.000000,10418.898773
69841.572883,148.041188,74.020594,10572.117872
69841.573194,0.000000,-296.082377,10418.898773
69841.573505,296.082377,-592.164754,9729.412825
69841.573816,222.061783,-296.082377,10342.289223
69841.574127,0.000000,0.000000,10725.336972
69841.574438,74.020594,0.000000,9806.022374
69841.574749,74.020594,-222.061783,10265.679673
69841.575060,0.000000,0.000000,10265.679673
69841.575371,0.000000,0.000000,10189.070123
69841.575682,0.000000,74.020594,10648.727422
69841.575993,444.123565,148.041188,9806.022374
69841.576304,-148.041188,148.041188,10495.508323
69841.576615,-296.082377,222.061783,10265.679673
69841.576926,-592.164754,0.000000,10189.070123
69841.577237,74.020594,-222.061783,10495.508323
69841.577548,74.020594,74.020594,10265.679673
69841.577859,0.000000,0.000000,10189.070123
69841.578170,0.000000,-222.061783,10495.508323
69841.578481,148.041188,148.041188,10342.289223
69841.578792,0.000000,-148.041188,10342.289223
69841.579103,0.000000,148.041188,9806.022374
69841.579414,-518.144159,0.000000,10495.508323
69841.579725,222.061783,74.020594,10418.898773
69841.580036,0.000000,74.020594,10265.679673
69841.580347,-148.041188,0.000000,10189.070123
69841.580658,74.020594,-222.061783,10189.070123
69841.580970,0.000000,148.041188,10342.289223
69841.581281,148.041188,0.000000,10418.898773
69841.581592,0.000000,0.000000,9959.241474
69841.581903,0.000000,-296.082377,10189.070123
69841.582214,222.061783,74.020594,9729.412825
69841.582525,-148.041188,666.185348,10112.460574
69841.582836,0.000000,-296.082377,10035.851024
69841.583147,296.082377,0.000000,10189.070123
69841.583458,74.020594,148.041188,10342.289223
69841.583769,0.000000,0.000000,10265.679673
69841.584080,74.020594,0.000000,10418.898773
69841.584391,74.020594,0.000000,10342.289223
69841.584702,0.000000,0.000000,10418.898773
69841.585013,444.123565,74.020594,10342.289223
69841.585324,74.020594,-296.082377,10418.898773
69841.585635,222.061783,0.000000,10035.851024
69841.585946,370.102971,222.061783,9882.631924
69841.586257,0.000000,0.000000,10342.289223
69841.586568,-222.061783,-148.041188,10342.289223
69841.586879,0.000000,0.000000,10418.898773
69841.587190,296.082377,148.041188,10265.679673
69841.587501,0.000000,0.000000,10418.898773
69841.587812,0.000000,-370.102971,10572.117872
69841.588123,0.000000,0.000000,10112.460574
69841.588434,222.061783,296.082377,10265.679673
69841.588745,0.000000,-148.041188,9729.412825
69841.589056,592.164754,0.000000,10035.851024
69841.589367,148.041188,-296.082377,9882.631924
69841.589678,-148.041188,0.000000,10112.460574
69841.589989,0.000000,0.000000,10495.508323
69841.590300,222.061783,-296.082377,10418.898773
69841.590611,74.020594,0.000000,10418.898773
69841.590922,0.000000,0.000000,10572.117872
69841.591233,-222.061783,0.000000,10495.508323
69841.591544,148.041188,0.000000,10342.289223
69841.591855,74.020594,222.061783,9882.631924
69841.592166,0.000000,148.041188,10035.851024
69841.592477,0.000000,0.000000,10572.117872
69841.592788,0.000000,-148.041188,10495.508323
69841.593099,296.082377,-222.061783,10035.851024
69841.593410,296.082377,74.020594,10035.851024
69841.593721,0.000000,74.020594,10342.289223
69841.594032,-148.041188,-222.061783,10572.117872
69841.594343,74.020594,0.000000,10189.070123
69841.594654,592.164754,0.000000,10112.460574
69841.594965,444.123565,0.000000,9959.241474
69841.595276,0.000000,0.000000,10955.165621
69841.595587,0.000000,-296.082377,10495.508323
69841.595898,592.164754,0.000000,10189.070123
69841.596209,222.061783,0.000000,10342.289223
69841.596520,0.000000,74.020594,10265.679673
69841.596831,0.000000,74.020594,10265.679673
69841.597142,0.000000,0.000000,10418.898773
69841.597453,296.082377,222.061783,10878.556072
69841.597764,148.041188,-370.102971,9576.193725
69841.598075,74.020594,-296.082377,10265.679673
69841.598386,-296.082377,0.000000,10342.289223
69841.598697,0.000000,74.020594,10725.336972
69841.599008,-370.102971,0.000000,10572.117872
69841.599319,0.000000,-222.061783,10342.289223
69841.599630,0.000000,-148.041188,10265.679673
69841.599942,0.000000,0.000000,10495.508323
69841.600253,592.164754,74.020594,10418.898773
69841.600564,444.123565,-74.020594,10265.679673
69841.600875,74.020594,74.020594,9882.631924
69841.601186,148.041188,0.000000,9959.241474
69841.601497,444.123565,0.000000,10418.898773
69841.601808,148.041188,0.000000,10189.070123
69841.602119,0.000000,-148.041188,10189.070123
69841.602430,-148.041188,-148.041188,10418.898773
69841.602740,0.000000,-148.041188,10418.898773
69841.603051,0.000000,74.020594,10342.289223
69841.603362,0.000000,-148.041188,10265.679673
69841.603673,-148.041188,-148.041188,10342.289223
69841.603984,74.020594,74.020594,10189.070123
69841.604295,148.041188,222.061783,9422.974625
69841.604606,-592.164754,370.102971,9806.022374
69841.604916,74.020594,-370.102971,10572.117872
69841.605227,444.123565,-222.061783,10342.289223
69841.605538,222.061783,148.041188,9729.412825
69841.605849,592.164754,0.000000,9269.755526
69841.606160,0.000000,0.000000,10418.898773
69841.606471,-296.082377,0.000000,10572.117872
69841.606781,0.000000,148.041188,10342.289223
69841.607092,74.020594,-148.041188,10189.070123
69841.607403,-370.102971,-148.041188,10418.898773
69841.607714,0.000000,222.061783,10342.289223
69841.608025,74.020594,-222.061783,10725.336972
69841.608336,74.020594,74.020594,10572.117872
69841.608646,592.164754,148.041188,10035.851024
69841.608957,222.061783,74.020594,10112.460574
69841.609268,0.000000,0.000000,10265.679673
69841.609579,0.000000,0.000000,10495.508323
69841.609890,0.000000,0.000000,10418.898773
69841.610201,592.164754,0.000000,10189.070123
69841.610512,74.020594,0.000000,10955.165621
69841.610822,0.000000,370.102971,9959.241474
69841.611133,222.061783,0.000000,10418.898773
69841.611444,74.020594,148.041188,10878.556072
69841.611755,148.041188,0.000000,10265.679673
69841.612066,0.000000,0.000000,10265.679673
69841.612377,0.000000,0.000000,10342.289223
69841.612687,74.020594,74.020594,10265.679673
69841.612998,222.061783,296.082377,9576.193725
69841.613309,0.000000,0.000000,9882.631924
69841.613620,-148.041188,0.000000,10418.898773
69841.613931,0.000000,0.000000,10725.336972
69841.614242,0.000000,74.020594,10112.460574
69841.614553,74.020594,-370.102971,10265.679673
69841.614863,0.000000,0.000000,10112.460574
69841.615174,0.000000,0.000000,10342.289223
69841.615485,0.000000,0.000000,10495.508323
69841.615796,0.000000,0.000000,10418.898773
69841.616107,0.000000,-296.082377,10342.289223
69841.616418,222.061783,444.123565,10342.289223
69841.616728,0.000000,370.102971,10342.289223
69841.617039,148.041188,-222.061783,10189.070123
69841.617350,0.000000,74.020594,10418.898773
69841.617661,148.041188,0.000000,10418.898773
69841.617972,0.000000,0.000000,10265.679673
69841.618283,-148.041188,-222.061783,10342.289223
69841.618593,74.020594,0.000000,10112.460574
69841.618904,0.000000,-74.020594,9882.631924
69841.619215,0.000000,0.000000,10112.460574
69841.619526,296.082377,0.000000,10342.289223
69841.619837,74.020594,0.000000,10035.851024
69841.620148,-222.061783,74.020594,10265.679673
69841.620459,296.082377,0.000000,10342.289223
69841.620769,222.061783,148.041188,10112.460574
69841.621080,0.000000,0.000000,10265.679673
69841.621391,74.020594,518.144159,10265.679673
69841.621702,74.020594,0.000000,10189.070123
69841.622013,0.000000,0.000000,10342.289223
69841.622324,74.020594,-222.061783,10572.117872
69841.622634,74.020594,0.000000,10648.727422
69841.622945,0.000000,0.000000,10418.898773
69841.623256,0.000000,-666.185348,10418.898773
69841.623567,444.123565,0.000000,10112.460574
69841.623878,148.041188,0.000000,10035.851024
69841.624189,-222.061783,74.020594,10955.165621
69841.624499,148.041188,0.000000,10189.070123
69841.624810,0.000000,0.000000,10265.679673
69841.625121,0.000000,74.020594,10265.679673
69841.625432,222.061783,74.020594,10495.508323
69841.625743,-74.020594,370.102971,10725.336972
69841.626054,0.000000,-222.061783,10265.679673
69841.626365,370.102971,296.082377,10035.851024
69841.626675,0.000000,-148.041188,10572.117872
69841.626986,0.000000,-222.061783,10342.289223
69841.627297,296.082377,0.000000,10418.898773
69841.627608,74.020594,74.020594,10189.070123
69841.627919,148.041188,-222.061783,10112.460574
69841.628230,0.000000,0.000000,10495.508323
69841.628540,666.185348,444.123565,10572.117872
69841.628851,-518.144159,74.020594,9806.022374
69841.629162,-148.041188,74.020594,10112.460574
69841.629473,74.020594,0.000000,10495.508323
69841.629784,222.061783,0.000000,10418.898773
69841.630095,-296.082377,0.000000,10572.117872
69841.630406,148.041188,0.000000,10418.898773
69841.630716,0.000000,0.000000,10265.679673
69841.631027,-148.041188,0.000000,10495.508323
69841.631338,148.041188,296.082377,10725.336972
69841.631649,0.000000,0.000000,10648.727422
69841.631960,0.000000,74.020594,11261.603821
69841.632271,592.164754,0.000000,10418.898773
69841.632581,74.020594,148.041188,10342.289223
69841.632892,-148.041188,0.000000,10648.727422
69841.633203,148.041188,74.020594,10418.898773
69841.633514,0.000000,0.000000,10265.679673
69841.633825,0.000000,-222.061783,10265.679673
69841.634136,296.082377,0.000000,10112.460574
69841.634446,148.041188,296.082377,10265.679673
69841.634757,222.061783,-592.164754,10725.336972
69841.635068,296.082377,444.123565,10572.117872
69841.635379,148.041188,0.000000,10418.898773
69841.635690,-222.061783,0.000000,10878.556072
69841.636001,370.102971,0.000000,10342.289223
69841.636312,0.000000,0.000000,10265.679673
69841.636622,0.000000,0.000000,10418.898773
69841.636933,74.020594,0.000000,10112.460574
69841.637244,74.020594,0.000000,10189.070123
69841.637555,222.061783,0.000000,10189.070123
69841.637866,148.041188,0.000000,10035.851024
69841.638177,0.000000,74.020594,10572.117872
69841.638487,0.000000,-148.041188,11184.994271
69841.638798,0.000000,-296.082377,10955.165621
69841.639109,74.020594,0.000000,10342.289223
69841.639420,222.061783,74.020594,10265.679673
69841.639731,-148.041188,0.000000,10572.117872
69841.640042,-370.102971,444.123565,10572.117872
69841.640352,0.000000,0.000000,10265.679673
69841.640663,0.000000,0.000000,10265.679673
69841.640974,222.061783,0.000000,10342.289223
69841.641285,296.082377,666.185348,9806.022374
69841.641596,222.061783,0.000000,10418.898773
69841.641907,0.000000,370.102971,10035.851024
69841.642218,-74.020594,222.061783,10648.727422
69841.642528,0.000000,0.000000,10418.898773
69841.642839,518.144159,0.000000,10418.898773
69841.643150,148.041188,0.000000,10418.898773
69841.643461,-148.041188,-222.061783,10265.679673
69841.643772,74.020594,0.000000,10342.289223
69841.644083,74.020594,0.000000,10801.946522
69841.644393,0.000000,296.082377,10112.460574
69841.644704,296.082377,444.123565,10418.898773
69841.645015,74.020594,-518.144159,10495.508323
69841.645326,222.061783,0.000000,10342.289223
69841.645637,444.123565,-370.102971,11108.384721
69841.645948,0.000000,0.000000,10265.679673
69841.646258,0.000000,-148.041188,10342.289223
69841.646569,0.000000,74.020594,10495.508323
69841.646880,0.000000,0.000000,10265.679673
69841.647191,0.000000,222.061783,10342.289223
69841.647502,-296.082377,0.000000,10418.898773
69841.647813,-148.041188,518.144159,10265.679673
69841.648124,0.000000,74.020594,10418.898773
69841.648434,74.020594,0.000000,9882.631924
69841.648745,-222.061783,0.000000,10189.070123
69841.649056,296.082377,0.000000,10035.851024
69841.649367,148.041188,0.000000,10265.679673
69841.649678,0.000000,0.000000,10265.679673
69841.649989,148.041188,0.000000,10265.679673
69841.650299,0.000000,-222.061783,10112.460574
69841.650610,-592.164754,-148.041188,9806.022374
69841.650921,148.041188,0.000000,10495.508323
69841.651232,0.000000,74.020594,10265.679673
69841.651543,74.020594,0.000000,10265.679673
69841.651854,148.041188,0.000000,10265.679673
69841.652165,-222.061783,74.020594,10265.679673
69841.652475,0.000000,-222.061783,10342.289223
69841.652786,370.102971,444.123565,10495.508323
69841.653097,0.000000,0.000000,10572.117872
69841.653408,-222.061783,-222.061783,10265.679673
69841.653719,74.020594,0.000000,10342.289223
69841.654030,0.000000,74.020594,11031.775171
69841.654340,0.000000,-296.082377,10112.460574
69841.654651,0.000000,-666.185348,10418.898773
69841.654962,222.061783,296.082377,10725.336972
69841.655273,222.061783,0.000000,10342.289223
69841.655584,148.041188,0.000000,10801.946522
69841.655895,370.102971,0.000000,10342.289223
69841.656205,0.000000,0.000000,10035.851024
69841.656516,0.000000,222.061783,10495.508323
69841.656827,0.000000,0.000000,10342.289223
69841.657138,370.102971,0.000000,10189.070123
69841.657449,222.061783,-296.082377,10265.679673
69841.657760,74.020594,0.000000,10112.460574
69841.658071,222.061783,0.000000,10342.289223
69841.658381,-222.061783,0.000000,10418.898773
69841.658692,222.061783,148.041188,10418.898773
69841.659003,148.041188,0.000000,10189.070123
69841.659314,74.020594,0.000000,10265.679673
69841.659625,0.000000,-148.041188,10035.851024
69841.659936,74.020594,296.082377,10342.289223
69841.660246,0.000000,222.061783,9959.241474
69841.660557,-370.102971,148.041188,10342.289223
69841.660868,0.000000,0.000000,10418.898773
69841.661179,-518.144159,0.000000,10342.289223
69841.661490,0.000000,148.041188,10342.289223
69841.661801,0.000000,0.000000,10342.289223
69841.662111,-148.041188,0.000000,10342.289223
69841.662422,74.020594,0.000000,10648.727422
69841.662733,148.041188,0.000000,10648.727422
69841.663044,592.164754,-370.102971,10265.679673
69841.663355,0.000000,0.000000,10112.460574
69841.663666,0.000000,-296.082377,10342.289223
69841.663977,0.000000,0.000000,10878.556072
69841.664287,148.041188,296.082377,10189.070123
69841.664598,-222.061783,0.000000,10342.289223
69841.664909,0.000000,-222.061783,10495.508323
69841.665220,74.020594,74.020594,10418.898773
69841.665531,0.000000,222.061783,10189.070123
69841.665842,444.123565,-296.082377,10418.898773
69841.666152,0.000000,0.000000,10035.851024
69841.666463,-296.082377,74.020594,10725.336972
69841.666774,148.041188,0.000000,10342.289223
69841.667085,0.000000,0.000000,10035.851024
69841.667396,0.000000,-148.041188,10342.289223
69841.667707,296.082377,0.000000,10265.679673
69841.668017,0.000000,0.000000,10189.070123
69841.668328,0.000000,0.000000,9882.631924
69841.668639,0.000000,-74.020594,10035.851024
69841.668950,0.000000,0.000000,10725.336972
69841.669261,370.102971,666.185348,9882.631924
69841.669572,0.000000,0.000000,10418.898773
69841.669883,0.000000,0.000000,10495.508323
69841.670193,222.061783,0.000000,10495.508323
69841.670504,370.102971,0.000000,10035.851024
69841.670815,0.000000,0.000000,10265.679673
69841.671126,222.061783,-444.123565,10035.851024
69841.671437,0.000000,0.000000,10342.289223
69841.671748,0.000000,74.020594,10112.460574
69841.672058,0.000000,74.020594,10112.460574
69841.672369,0.000000,-222.061783,10342.289223
69841.672680,-518.144159,0.000000,10418.898773
69841.672991,370.102971,296.082377,10418.898773
69841.673302,0.000000,-74.020594,10342.289223
69841.673613,74.020594,0.000000,10189.070123
69841.673924,370.102971,0.000000,10342.289223
69841.674234,0.000000,0.000000,10112.460574
69841.674545,0.000000,-222.061783,10265.679673
69841.674856,74.020594,0.000000,10342.289223
69841.675167,0.000000,0.000000,10342.289223
69841.675478,222.061783,0.000000,10418.898773
69841.675789,74.020594,296.082377,10342.289223
69841.676099,74.020594,0.000000,11261.603821
69841.676410,148.041188,0.000000,10495.508323
69841.676721,370.102971,74.020594,10035.851024
69841.677032,148.041188,0.000000,10342.289223
69841.677343,148.041188,0.000000,10342.289223
69841.677654,74.020594,0.000000,10035.851024
69841.677964,74.020594,0.000000,10265.679673
69841.678275,296.082377,0.000000,9882.631924
69841.678586,0.000000,74.020594,10342.289223
69841.678897,-296.082377,296.082377,10725.336972
69841.679208,518.144159,-592.164754,10112.460574
69841.679519,-148.041188,-222.061783,10265.679673
69841.679830,222.061783,-148.041188,10342.289223
69841.680140,74.020594,-148.041188,9882.631924
69841.680451,0.000000,0.000000,10342.289223
69841.680762,0.000000,74.020594,10418.898773
69841.681073,296.082377,296.082377,10572.117872
69841.681384,592.164754,-296.082377,10035.851024
69841.681695,518.144159,-370.102971,10342.289223
69841.682005,-592.164754,0.000000,10035.851024
69841.682316,-222.061783,0.000000,10572.117872
69841.682627,74.020594,370.102971,10572.117872
69841.682938,0.000000,0.000000,10112.460574
69841.683249,0.000000,-296.082377,10189.070123
69841.683560,148.041188,74.020594,10112.460574
69841.683870,0.000000,74.020594,10342.289223
69841.684181,0.000000,222.061783,10418.898773
69841.684492,222.061783,-962.267725,10418.898773
69841.684803,74.020594,74.020594,10342.289223
69841.685114,74.020594,0.000000,10189.070123
69841.685425,370.102971,444.123565,10418.898773
69841.685736,0.000000,0.000000,10265.679673
69841.686046,0.000000,0.000000,10265.679673
69841.686357,148.041188,0.000000,10342.289223
69841.686668,0.000000,74.020594,10265.679673
69841.686979,0.000000,0.000000,10418.898773
69841.687290,0.000000,148.041188,10112.460574
69841.687601,74.020594,0.000000,10189.070123
69841.687911,74.020594,-148.041188,10342.289223
69841.688222,-518.144159,740.205942,9959.241474
69841.688533,148.041188,0.000000,10418.898773
69841.688844,74.020594,222.061783,9729.412825
69841.689155,0.000000,370.102971,10265.679673
69841.689466,0.000000,0.000000,10112.460574
69841.689776,74.020594,0.000000,9959.241474
69841.690087,0.000000,0.000000,10572.117872
69841.690398,148.041188,-222.061783,10265.679673
69841.690709,296.082377,0.000000,9959.241474
69841.691020,222.061783,0.000000,10495.508323
69841.691331,-148.041188,518.144159,10725.336972
69841.691642,-74.020594,74.020594,9806.022374
69841.691952,518.144159,-814.226536,11108.384721
69841.692263,0.000000,0.000000,10112.460574
69841.692574,814.226536,74.020594,10495.508323
69841.692885,-370.102971,0.000000,10418.898773
69841.693196,-296.082377,0.000000,10725.336972
69841.693507,0.000000,-222.061783,10418.898773
69841.693817,148.041188,0.000000,10342.289223
69841.694128,-222.061783,148.041188,10418.898773
69841.694439,0.000000,0.000000,10418.898773
69841.694750,0.000000,0.000000,10725.336972
69841.695061,148.041188,0.000000,10189.070123
69841.695372,222.061783,518.144159,10265.679673
69841.695683,0.000000,-222.061783,10342.289223
69841.695993,-222.061783,-222.061783,10495.508323
69841.696304,0.000000,0.000000,10265.679673
69841.696615,148.041188,0.000000,10265.679673
69841.696926,-74.020594,-370.102971,10265.679673
69841.697237,222.061783,-296.082377,9882.631924
69841.697548,74.020594,-222.061783,10418.898773
69841.697858,222.061783,0.000000,10495.508323
69841.698169,0.000000,-518.144159,11031.775171
69841.698480,370.102971,74.020594,10418.898773
69841.698791,222.061783,0.000000,10189.070123
69841.699102,-296.082377,0.000000,10418.898773
69841.699413,0.000000,0.000000,10572.117872
69841.699723,296.082377,592.164754,9959.241474
69841.700034,-370.102971,-740.205942,10418.898773
69841.700345,-222.061783,0.000000,9806.022374
69841.700656,0.000000,222.061783,10035.851024
69841.700967,-222.061783,0.000000,10572.117872
69841.701278,0.000000,148.041188,10418.898773
69841.701589,222.061783,-296.082377,10265.679673
69841.701899,-148.041188,-222.061783,10342.289223
69841.702210,222.061783,148.041188,10342.289223
69841.702521,370.102971,148.041188,10035.851024
69841.702832,74.020594,0.000000,10265.679673
69841.703143,296.082377,-296.082377,10112.460574
69841.703453,148.041188,0.000000,10265.679673
69841.703764,0.000000,-296.082377,10265.679673
69841.704075,74.020594,-296.082377,10112.460574
69841.704386,-666.185348,444.123565,10418.898773
69841.704697,148.041188,592.164754,10112.460574
69841.705008,0.000000,0.000000,10342.289223
69841.705318,222.061783,222.061783,10648.727422
69841.705629,74.020594,-370.102971,10342.289223
69841.705940,370.102971,0.000000,10035.851024
69841.706251,74.020594,0.000000,10418.898773
69841.706562,296.082377,0.000000,10495.508323
69841.706872,592.164754,148.041188,10418.898773
69841.707183,0.000000,-296.082377,10342.289223
69841.707494,0.000000,148.041188,10189.070123
69841.707805,0.000000,0.000000,10572.117872
69841.708116,0.000000,0.000000,10955.165621
69841.708426,148.041188,222.061783,10265.679673
69841.708737,0.000000,0.000000,10265.679673
69841.709048,0.000000,0.000000,10265.679673
69841.709359,296.082377,0.000000,10342.289223
69841.709670,0.000000,0.000000,10189.070123
69841.709981,-74.020594,222.061783,9729.412825
69841.710291,0.000000,222.061783,9729.412825
69841.710602,74.020594,74.020594,10265.679673
69841.710913,222.061783,148.041188,10418.898773
69841.711224,0.000000,74.020594,10265.679673
69841.711535,-222.061783,0.000000,10495.508323
69841.711845,74.020594,0.000000,10265.679673
69841.712156,74.020594,0.000000,10418.898773
69841.712467,74.020594,74.020594,10648.727422
69841.712778,74.020594,0.000000,10495.508323
69841.713089,0.000000,-296.082377,10955.165621
69841.713399,74.020594,74.020594,10265.679673
69841.713710,296.082377,0.000000,10265.679673
69841.714021,0.000000,0.000000,10265.679673
69841.714332,0.000000,74.020594,10035.851024
69841.714643,0.000000,0.000000,10265.679673
69841.714954,0.000000,0.000000,10265.679673
69841.715264,-444.123565,148.041188,10725.336972
69841.715575,74.020594,-518.144159,10265.679673
69841.715886,222.061783,0.000000,9882.631924
69841.716197,0.000000,0.000000,9959.241474
69841.716508,0.000000,74.020594,10265.679673
69841.716818,0.000000,-296.082377,10495.508323
69841.717129,296.082377,-222.061783,10265.679673
69841.717440,74.020594,0.000000,10342.289223
69841.717751,0.000000,74.020594,10648.727422
69841.718062,0.000000,0.000000,10189.070123
69841.718372,222.061783,0.000000,10955.165621
69841.718683,0.000000,-74.020594,10495.508323
69841.718994,0.000000,0.000000,9576.193725
69841.719305,0.000000,0.000000,10418.898773
69841.719616,74.020594,0.000000,10418.898773
69841.719927,148.041188,0.000000,10342.289223
69841.720237,-222.061783,0.000000,10342.289223
69841.720548,0.000000,0.000000,10265.679673
69841.720859,0.000000,0.000000,10495.508323
69841.721170,-148.041188,0.000000,10648.727422
69841.721481,0.000000,148.041188,10342.289223
69841.721791,74.020594,0.000000,10495.508323
69841.722102,-296.082377,0.000000,10189.070123
69841.722413,-148.041188,888.247130,11338.213370
69841.722724,74.020594,-296.082377,10112.460574
69841.723035,-296.082377,296.082377,9806.022374
69841.723345,0.000000,0.000000,10265.679673
69841.723656,148.041188,0.000000,10418.898773
69841.723967,222.061783,0.000000,10342.289223
69841.724278,0.000000,0.000000,10418.898773
69841.724589,0.000000,-148.041188,10418.898773
69841.724900,0.000000,-148.041188,10189.070123
69841.725210,74.020594,370.102971,11108.384721
69841.725521,-296.082377,-296.082377,10495.508323
69841.725832,74.020594,-148.041188,10418.898773
69841.726143,-222.061783,296.082377,10648.727422
69841.726454,0.000000,296.082377,10265.679673
69841.726764,296.082377,0.000000,10495.508323
69841.727075,0.000000,-222.061783,10495.508323
69841.727386,0.000000,74.020594,10342.289223
69841.727697,74.020594,148.041188,10572.117872
69841.728008,0.000000,0.000000,10342.289223
69841.728318,148.041188,0.000000,10035.851024
69841.728629,0.000000,148.041188,9576.193725
69841.728940,-148.041188,74.020594,10878.556072
69841.729251,0.000000,0.000000,10418.898773
69841.729562,74.020594,-296.082377,10648.727422
69841.729873,148.041188,-222.061783,10265.679673
69841.730183,222.061783,0.000000,10035.851024
69841.730494,0.000000,74.020594,10418.898773
69841.730805,0.000000,0.000000,10955.165621
69841.731116,0.000000,-148.041188,10648.727422
69841.731427,148.041188,148.041188,10189.070123
69841.731737,296.082377,-296.082377,9806.022374
69841.732048,-296.082377,0.000000,10265.679673
69841.732359,370.102971,222.061783,10572.117872
69841.732670,74.020594,148.041188,10342.289223
69841.732981,-148.041188,-222.061783,10495.508323
69841.733291,0.000000,0.000000,10342.289223
69841.733602,0.000000,0.000000,10265.679673
69841.733913,-74.020594,518.144159,10112.460574
69841.734224,296.082377,296.082377,10189.070123
69841.734535,148.041188,518.144159,10878.556072
69841.734846,0.000000,74.020594,10265.679673
69841.735156,148.041188,-148.041188,10189.070123
69841.735467,0.000000,0.000000,10418.898773
69841.735778,0.000000,74.020594,10342.289223
69841.736089,222.061783,148.041188,10418.898773
69841.736400,74.020594,0.000000,10265.679673
69841.736710,0.000000,-296.082377,10648.727422
69841.737021,-148.041188,0.000000,10418.898773
69841.737332,74.020594,74.020594,10265.679673
69841.737643,74.020594,0.000000,10342.289223
69841.737954,370.102971,-296.082377,10342.289223
69841.738264,-592.164754,-74.020594,10265.679673
69841.738575,296.082377,296.082377,10112.460574
69841.738886,370.102971,74.020594,10189.070123
69841.739197,0.000000,-148.041188,10189.070123
69841.739508,0.000000,0.000000,10495.508323
69841.739819,222.061783,148.041188,10342.289223
69841.740129,74.020594,148.041188,10955.165621
69841.740440,0.000000,0.000000,10265.679673
69841.740751,-74.020594,-296.082377,10878.556072
69841.741062,0.000000,0.000000,10878.556072
69841.741373,74.020594,222.061783,10725.336972
69841.741683,-148.041188,0.000000,10189.070123
69841.741994,-222.061783,-148.041188,10572.117872
69841.742305,222.061783,148.041188,10189.070123
69841.742616,0.000000,0.000000,10342.289223
69841.742927,-222.061783,0.000000,10418.898773
69841.743237,148.041188,0.000000,10112.460574
69841.743548,-370.102971,296.082377,10495.508323
69841.743859,296.082377,0.000000,10035.851024
69841.744170,666.185348,-370.102971,10342.289223
69841.744481,-1110.308913,-296.082377,10035.851024
69841.744792,222.061783,0.000000,10342.289223
69841.745102,148.041188,148.041188,10112.460574
69841.745413,-370.102971,-148.041188,10265.679673
69841.745724,-148.041188,-148.041188,10342.289223
69841.746035,222.061783,148.041188,10189.070123
69841.746346,-222.061783,0.000000,10189.070123
69841.746656,-296.082377,296.082377,10418.898773
69841.746967,74.020594,74.020594,10572.117872
69841.747278,74.020594,-222.061783,10725.336972
69841.747589,74.020594,0.000000,10265.679673
69841.747900,296.082377,592.164754,10342.289223
69841.748210,0.000000,0.000000,9959.241474
69841.748521,296.082377,0.000000,10342.289223
69841.748832,148.041188,74.020594,10265.679673
69841.749143,0.000000,0.000000,10418.898773
69841.749454,148.041188,-74.020594,10035.851024
69841.749765,0.000000,0.000000,9882.631924
69841.750075,0.000000,-222.061783,10878.556072
69841.750386,148.041188,-296.082377,10495.508323
69841.750697,-222.061783,74.020594,10495.508323
69841.751008,74.020594,0.000000,10495.508323
69841.751319,148.041188,0.000000,10112.460574
69841.751629,-296.082377,0.000000,10495.508323
69841.751940,148.041188,0.000000,10495.508323
69841.752251,74.020594,0.000000,10035.851024
69841.752562,0.000000,0.000000,10189.070123
69841.752873,74.020594,74.020594,10495.508323
69841.753184,74.020594,0.000000,10265.679673
69841.753494,0.000000,0.000000,10342.289223
69841.753805,0.000000,-74.020594,9882.631924
69841.754116,74.020594,-592.164754,10265.679673
69841.754427,-74.020594,222.061783,9576.193725
69841.754738,0.000000,0.000000,10265.679673
69841.755048,296.082377,0.000000,10112.460574
69841.755359,0.000000,-148.041188,9959.241474
69841.755670,74.020594,0.000000,10342.289223
69841.755981,74.020594,148.041188,10495.508323
69841.756292,0.000000,0.000000,10112.460574
69841.756602,0.000000,-296.082377,9959.241474
69841.756913,74.020594,-74.020594,10418.898773
69841.757224,518.144159,0.000000,9806.022374
69841.757535,0.000000,74.020594,10265.679673
69841.757846,0.000000,296.082377,10572.117872
69841.758157,74.020594,0.000000,10265.679673
69841.758467,148.041188,0.000000,10112.460574
69841.758778,148.041188,0.000000,10265.679673
69841.759089,0.000000,0.000000,10265.679673
69841.759400,592.164754,518.144159,10342.289223
69841.759711,148.041188,0.000000,10265.679673
69841.760021,148.041188,0.000000,10418.898773
69841.760332,148.041188,0.000000,10342.289223
69841.760643,222.061783,0.000000,10035.851024
69841.760954,0.000000,74.020594,10572.117872
69841.761265,0.000000,0.000000,10265.679673
69841.761575,0.000000,0.000000,10189.070123
69841.761886,222.061783,-222.061783,10035.851024
69841.762197,0.000000,0.000000,10725.336972
69841.762508,-74.020594,148.041188,9806.022374
69841.762819,148.041188,222.061783,10725.336972
69841.763130,740.205942,-370.102971,10495.508323
69841.763440,0.000000,-296.082377,10265.679673
69841.763751,296.082377,0.000000,10418.898773
69841.764062,222.061783,0.000000,10418.898773
69841.764373,0.000000,0.000000,10342.289223
69841.764684,222.061783,0.000000,10265.679673
69841.764994,0.000000,148.041188,9576.193725
69841.765305,74.020594,0.000000,10572.117872
69841.765616,888.247130,-148.041188,10112.460574
69841.765927,74.020594,-148.041188,9882.631924
69841.766238,-148.041188,0.000000,10342.289223
69841.766548,444.123565,222.061783,10035.851024
69841.766859,0.000000,-148.041188,10189.070123
69841.767170,0.000000,-222.061783,10189.070123
69841.767481,148.041188,148.041188,9959.241474
69841.767792,148.041188,74.020594,9499.584175
69841.768103,0.000000,-296.082377,11261.603821
69841.768413,0.000000,-370.102971,10342.289223
69841.768724,-296.082377,0.000000,10648.727422
69841.769035,222.061783,0.000000,10189.070123
69841.769346,148.041188,-148.041188,10035.851024
69841.769657,0.000000,0.000000,10265.679673
69841.769967,148.041188,0.000000,10265.679673
69841.770278,370.102971,0.000000,10112.460574
69841.770589,148.041188,-222.061783,10112.460574
69841.770900,0.000000,0.000000,10189.070123
69841.771211,74.020594,148.041188,10112.460574
69841.771521,0.000000,-222.061783,10112.460574
69841.771832,-222.061783,0.000000,10572.117872
69841.772143,444.123565,0.000000,10495.508323
69841.772454,0.000000,0.000000,10035.851024
69841.772765,-370.102971,148.041188,10112.460574
69841.773076,0.000000,0.000000,10265.679673
69841.773386,74.020594,0.000000,10495.508323
69841.773697,296.082377,222.061783,10342.289223
69841.774008,148.041188,0.000000,10265.679673
69841.774319,0.000000,0.000000,9959.241474
69841.774630,0.000000,0.000000,10189.070123
69841.774940,0.000000,74.020594,10495.508323
69841.775251,0.000000,74.020594,10572.117872
69841.775562,0.000000,74.020594,9882.631924
69841.775873,0.000000,0.000000,10189.070123
69841.776184,0.000000,74.020594,10265.679673
69841.776494,0.000000,74.020594,10495.508323
69841.776805,0.000000,-148.041188,10265.679673
69841.777116,0.000000,148.041188,10342.289223
69841.777427,370.102971,74.020594,10342.289223
69841.777738,370.102971,0.000000,10265.679673
69841.778049,0.000000,-444.123565,10495.508323
69841.778359,0.000000,518.144159,9422.974625
69841.778670,-148.041188,-370.102971,11031.775171
69841.778981,0.000000,0.000000,10342.289223
69841.779292,370.102971,0.000000,10418.898773
69841.779603,-222.061783,0.000000,10418.898773
69841.779913,0.000000,74.020594,10418.898773
69841.780224,0.000000,0.000000,10572.117872
69841.780535,148.041188,148.041188,10495.508323
69841.780846,592.164754,0.000000,10495.508323
69841.781157,444.123565,-148.041188,10648.727422
69841.781467,148.041188,-74.020594,9806.022374
69841.781778,296.082377,0.000000,10495.508323
69841.782089,370.102971,518.144159,10418.898773
69841.782400,0.000000,0.000000,10265.679673
69841.782711,-222.061783,0.000000,10495.508323
69841.783022,-296.082377,0.000000,10572.117872
69841.783332,-296.082377,0.000000,10572.117872
69841.783643,-222.061783,296.082377,10189.070123
69841.783954,-296.082377,222.061783,10112.460574
69841.784265,222.061783,370.102971,10572.117872
69841.784576,296.082377,148.041188,9959.241474
69841.784886,592.164754,444.123565,10342.289223
69841.785197,296.082377,0.000000,10572.117872
69841.785508,370.102971,0.000000,10495.508323
69841.785819,74.020594,-222.061783,10418.898773
69841.786130,0.000000,0.000000,10342.289223
69841.786440,74.020594,296.082377,10418.898773
69841.786751,-148.041188,0.000000,10572.117872
69841.787062,-222.061783,0.000000,10648.727422
69841.787373,0.000000,0.000000,10112.460574
69841.787684,74.020594,0.000000,9882.631924
69841.787995,0.000000,296.082377,9806.022374
69841.788305,222.061783,-592.164754,10112.460574
69841.788616,148.041188,74.020594,10342.289223
69841.788927,222.061783,-222.061783,10035.851024
69841.789238,370.102971,0.000000,9882.631924
69841.789549,0.000000,-222.061783,10189.070123
69841.789859,-296.082377,0.000000,10725.336972
69841.790170,0.000000,0.000000,10572.117872
69841.790481,0.000000,0.000000,10648.727422
69841.790792,-592.164754,74.020594,9882.631924
69841.791103,222.061783,74.020594,9806.022374
69841.791413,0.000000,148.041188,10342.289223
69841.791724,222.061783,0.000000,10112.460574
69841.792035,296.082377,0.000000,10342.289223
69841.792346,148.041188,0.000000,10189.070123
69841.792657,0.000000,0.000000,9959.241474
69841.792968,0.000000,0.000000,10265.679673
69841.793278,0.000000,0.000000,10418.898773
69841.793589,74.020594,0.000000,10418.898773
69841.793900,222.061783,-74.020594,9882.631924
69841.794211,0.000000,0.000000,10648.727422
69841.794522,0.000000,0.000000,10265.679673
69841.794832,296.082377,-444.123565,10572.117872
69841.795143,0.000000,74.020594,10035.851024
69841.795454,74.020594,74.020594,10342.289223
69841.795765,370.102971,0.000000,10189.070123
69841.796076,74.020594,0.000000,10035.851024
69841.796386,296.082377,592.164754,10342.289223
69841.796697,148.041188,0.000000,9729.412825
69841.797008,-222.061783,-370.102971,10572.117872
69841.797319,0.000000,-296.082377,10495.508323
69841.797630,0.000000,-296.082377,9806.022374
69841.797941,0.000000,0.000000,10495.508323
69841.798251,148.041188,0.000000,10418.898773
69841.798562,0.000000,0.000000,10418.898773
69841.798873,0.000000,0.000000,10495.508323
69841.799184,518.144159,222.061783,11031.775171
69841.799495,518.144159,74.020594,10418.898773
69841.799805,592.164754,0.000000,10878.556072
69841.800116,148.041188,0.000000,10801.946522
69841.800427,-296.082377,74.020594,10572.117872
69841.800738,0.000000,0.000000,10342.289223
69841.801049,0.000000,0.000000,10265.679673
69841.801360,0.000000,0.000000,10495.508323
69841.801671,-296.082377,0.000000,10418.898773
69841.801982,148.041188,666.185348,10801.946522
69841.802293,0.000000,0.000000,10112.460574
69841.802604,148.041188,0.000000,10189.070123
69841.802915,592.164754,296.082377,10035.851024
69841.803225,74.020594,0.000000,10189.070123
69841.803536,0.000000,-148.041188,10189.070123
69841.803847,0.000000,296.082377,10725.336972
69841.804158,222.061783,370.102971,10572.117872
69841.804469,74.020594,-222.061783,10189.070123
69841.804780,-148.041188,-814.226536,11108.384721
69841.805091,-296.082377,-222.061783,10648.727422
69841.805402,0.000000,222.061783,10265.679673
69841.805713,222.061783,0.000000,10035.851024
69841.806024,0.000000,0.000000,10035.851024
69841.806335,518.144159,-222.061783,9882.631924
69841.806646,-74.020594,518.144159,10189.070123
69841.806957,444.123565,74.020594,9959.241474
69841.807268,148.041188,-148.041188,10035.851024
69841.807579,0.000000,0.000000,9882.631924
69841.807890,0.000000,0.000000,10572.117872
69841.808201,0.000000,148.041188,10342.289223
69841.808512,0.000000,-222.061783,10418.898773
69841.808823,74.020594,-296.082377,9959.241474
69841.809133,518.144159,0.000000,9729.412825
69841.809444,0.000000,296.082377,9652.803275
69841.809755,-370.102971,74.020594,9959.241474
69841.810066,518.144159,0.000000,10572.117872
69841.810377,148.041188,74.020594,10342.289223
69841.810688,0.000000,0.000000,10418.898773
69841.810999,0.000000,0.000000,10572.117872
69841.811310,-148.041188,0.000000,10418.898773
69841.811621,0.000000,0.000000,10265.679673
69841.811932,148.041188,-74.020594,10725.336972
69841.812243,370.102971,-74.020594,10342.289223
69841.812554,-518.144159,148.041188,10725.336972
69841.812865,148.041188,148.041188,10495.508323
69841.813176,74.020594,-148.041188,10265.679673
69841.813487,296.082377,-444.123565,10189.070123
69841.813798,148.041188,0.000000,10418.898773
69841.814109,74.020594,74.020594,10572.117872
69841.814420,0.000000,0.000000,10342.289223
69841.814731,74.020594,148.041188,9959.241474
69841.815041,296.082377,0.000000,10112.460574
69841.815352,74.020594,148.041188,10495.508323
69841.815663,-666.185348,0.000000,10955.165621
69841.815974,-296.082377,0.000000,10342.289223
69841.816285,222.061783,0.000000,9882.631924
69841.816596,370.102971,0.000000,10189.070123
69841.816907,0.000000,0.000000,10189.070123
69841.817218,0.000000,0.000000,10572.117872
69841.817529,0.000000,0.000000,10112.460574
69841.817840,0.000000,-148.041188,9499.584175
69841.818151,-296.082377,296.082377,10189.070123
69841.818462,-222.061783,0.000000,10648.727422
69841.818773,0.000000,296.082377,10725.336972
69841.819084,148.041188,74.020594,10418.898773
69841.819395,-148.041188,-148.041188,10035.851024
69841.819706,0.000000,-222.061783,10265.679673
69841.820017,148.041188,148.041188,10418.898773
69841.820328,0.000000,296.082377,10342.289223
69841.820639,0.000000,0.000000,10342.289223
69841.820949,0.000000,-296.082377,10342.289223
69841.821260,148.041188,0.000000,10112.460574
69841.821571,148.041188,0.000000,10189.070123
69841.821882,0.000000,518.144159,9422.974625
69841.822193,-296.082377,0.000000,10495.508323
69841.822504,0.000000,0.000000,10265.679673
69841.822815,148.041188,0.000000,10342.289223
69841.823126,0.000000,-296.082377,10189.070123
69841.823437,148.041188,-370.102971,10189.070123
69841.823748,370.102971,0.000000,10265.679673
69841.824059,148.041188,74.020594,10342.289223
69841.824370,-148.041188,-148.041188,10265.679673
69841.824681,148.041188,-666.185348,10418.898773
69841.824992,296.082377,-518.144159,10648.727422
69841.825303,592.164754,-296.082377,11031.775171
69841.825614,222.061783,74.020594,10648.727422
69841.825925,0.000000,0.000000,10418.898773
69841.826236,148.041188,74.020594,10572.117872
69841.826547,0.000000,0.000000,10265.679673
69841.826857,148.041188,-222.061783,10265.679673
69841.827168,0.000000,-148.041188,9882.631924
69841.827479,296.082377,222.061783,10112.460574
69841.827790,222.061783,370.102971,9729.412825
69841.828101,-518.144159,444.123565,10495.508323
69841.828412,0.000000,-148.041188,10725.336972
69841.828723,148.041188,74.020594,10418.898773
69841.829034,296.082377,0.000000,9729.412825
69841.829345,0.000000,-370.102971,10265.679673
69841.829656,0.000000,-370.102971,10265.679673
69841.829967,148.041188,74.020594,10265.679673
69841.830278,0.000000,74.020594,10418.898773
69841.830589,0.000000,-296.082377,10418.898773
69841.830900,74.020594,-370.102971,10418.898773
69841.831211,296.082377,0.000000,10342.289223
69841.831522,0.000000,0.000000,10648.727422
69841.831833,370.102971,296.082377,10648.727422
69841.832144,0.000000,-148.041188,10265.679673
69841.832455,0.000000,74.020594,10495.508323
69841.832765,0.000000,0.000000,10265.679673
69841.833076,-296.082377,0.000000,10572.117872
69841.833387,518.144159,-148.041188,10648.727422
69841.833698,518.144159,74.020594,9729.412825
69841.834009,-148.041188,-148.041188,10725.336972
69841.834320,222.061783,-444.123565,10725.336972
69841.834631,0.000000,592.164754,10418.898773
69841.834942,222.061783,74.020594,10572.117872
69841.835253,222.061783,0.000000,10112.460574
69841.835564,0.000000,0.000000,10342.289223
69841.835875,-148.041188,0.000000,10572.117872
69841.836186,222.061783,0.000000,10265.679673
69841.836497,0.000000,74.020594,10342.289223
69841.836808,148.041188,0.000000,10342.289223
69841.837119,296.082377,0.000000,10265.679673
69841.837430,0.000000,0.000000,10112.460574
69841.837741,-74.020594,0.000000,9729.412825
69841.838052,0.000000,222.061783,10495.508323
69841.838363,0.000000,-370.102971,10572.117872
69841.838673,148.041188,0.000000,10342.289223
69841.838984,0.000000,0.000000,10418.898773
69841.839295,-222.061783,-148.041188,10342.289223
69841.839606,148.041188,0.000000,10265.679673
69841.839917,444.123565,148.041188,10189.070123
69841.840228,0.000000,-74.020594,10342.289223
69841.840539,296.082377,0.000000,10725.336972
69841.840850,0.000000,74.020594,9806.022374
69841.841161,0.000000,296.082377,10725.336972
69841.841472,74.020594,-222.061783,10342.289223
69841.841783,370.102971,0.000000,10801.946522
69841.842094,-148.041188,222.061783,10495.508323
69841.842405,0.000000,74.020594,10265.679673
69841.842716,0.000000,-148.041188,10265.679673
69841.843027,0.000000,-222.061783,10035.851024
69841.843338,222.061783,0.000000,10112.460574
69841.843649,592.164754,0.000000,11184.994271
69841.843960,-592.164754,148.041188,10725.336972
69841.844271,148.041188,0.000000,10342.289223
69841.844581,518.144159,0.000000,10265.679673
69841.844892,296.082377,148.041188,10418.898773
69841.845203,74.020594,-222.061783,10265.679673
69841.845514,-370.102971,0.000000,10572.117872
69841.845825,0.000000,148.041188,10265.679673
69841.846136,296.082377,370.102971,9729.412825
69841.846447,74.020594,-296.082377,10342.289223
69841.846758,-444.123565,-296.082377,10648.727422
69841.847069,0.000000,222.061783,10495.508323
69841.847380,222.061783,296.082377,11338.213370
69841.847691,296.082377,0.000000,10418.898773
69841.848002,0.000000,0.000000,10189.070123
69841.848313,0.000000,0.000000,10035.851024
69841.848624,74.020594,148.041188,10265.679673
69841.848935,0.000000,296.082377,9806.022374
69841.849246,-74.020594,296.082377,10725.336972
69841.849557,0.000000,296.082377,9499.584175
69841.849868,-518.144159,-370.102971,10189.070123
69841.850179,-370.102971,-296.082377,10342.289223
69841.850489,148.041188,0.000000,10189.070123
69841.850800,222.061783,74.020594,10112.460574
69841.851111,74.020594,0.000000,10342.289223
69841.851422,-148.041188,0.000000,10418.898773
69841.851733,74.020594,-222.061783,9959.241474
69841.852044,518.144159,222.061783,10342.289223
69841.852355,0.000000,0.000000,10342.289223
69841.852666,-296.082377,0.000000,10418.898773
69841.852977,148.041188,0.000000,10342.289223
69841.853288,296.082377,444.123565,10572.117872
69841.853599,-74.020594,0.000000,10342.289223
69841.853910,0.000000,-296.082377,10112.460574
69841.854221,-222.061783,74.020594,10342.289223
69841.854532,0.000000,518.144159,10725.336972
69841.854843,222.061783,0.000000,10265.679673
69841.855154,0.000000,-370.102971,10035.851024
69841.855465,74.020594,-222.061783,10035.851024
69841.855776,148.041188,148.041188,10112.460574
69841.856086,74.020594,-222.061783,10342.289223
69841.856397,-370.102971,0.000000,9959.241474
69841.856708,0.000000,-296.082377,11031.775171
69841.857019,148.041188,0.000000,10342.289223
69841.857330,148.041188,0.000000,10418.898773
69841.857641,0.000000,0.000000,10035.851024
69841.857952,-222.061783,148.041188,10572.117872
69841.858263,0.000000,0.000000,10418.898773
69841.858574,0.000000,-148.041188,10265.679673
69841.858885,0.000000,-222.061783,10112.460574
69841.859196,-444.123565,0.000000,10418.898773
69841.859507,518.144159,-74.020594,10418.898773
69841.859818,74.020594,-296.082377,10572.117872
69841.860129,0.000000,-222.061783,10265.679673
69841.860440,0.000000,0.000000,10955.165621
69841.860751,74.020594,222.061783,10342.289223
69841.861062,148.041188,148.041188,10189.070123
69841.861373,-222.061783,0.000000,10342.289223
69841.861684,74.020594,0.000000,10189.070123
69841.861994,666.185348,-370.102971,9806.022374
69841.862305,222.061783,518.144159,9806.022374
69841.862616,0.000000,296.082377,9959.241474
69841.862927,0.000000,222.061783,10265.679673
69841.863238,0.000000,0.000000,10955.165621
69841.863549,0.000000,0.000000,10418.898773
69841.863860,296.082377,-148.041188,10265.679673
69841.864171,148.041188,-296.082377,10189.070123
69841.864482,0.000000,74.020594,10572.117872
69841.864793,148.041188,0.000000,10955.165621
69841.865104,0.000000,444.123565,10572.117872
69841.865415,222.061783,-296.082377,10112.460574
69841.865726,74.020594,-74.020594,10495.508323
69841.866037,0.000000,0.000000,10265.679673
69841.866348,-222.061783,296.082377,10418.898773
69841.866659,0.000000,0.000000,10342.289223
69841.866970,148.041188,-148.041188,10495.508323
69841.867281,0.000000,0.000000,10035.851024
69841.867592,0.000000,222.061783,10725.336972
69841.867902,222.061783,592.164754,10418.898773
69841.868213,74.020594,0.000000,9882.631924
69841.868524,296.082377,-148.041188,10112.460574
69841.868835,0.000000,74.020594,10265.679673
69841.869146,222.061783,0.000000,10418.898773
69841.869457,0.000000,74.020594,10112.460574
69841.869768,0.000000,0.000000,10495.508323
69841.870079,0.000000,0.000000,10495.508323
69841.870390,74.020594,0.000000,10495.508323
69841.870701,0.000000,370.102971,10189.070123
69841.871012,74.020594,222.061783,10189.070123
69841.871323,-370.102971,-148.041188,10189.070123
69841.871634,148.041188,0.000000,10342.289223
69841.871945,444.123565,148.041188,10265.679673
69841.872256,222.061783,0.000000,9959.241474
69841.872567,0.000000,0.000000,10418.898773
69841.872878,0.000000,222.061783,10342.289223
69841.873189,0.000000,0.000000,10801.946522
69841.873500,-148.041188,0.000000,10265.679673
69841.873810,0.000000,0.000000,10418.898773
69841.874121,74.020594,0.000000,10342.289223
69841.874432,74.020594,-222.061783,10189.070123
69841.874743,296.082377,-740.205942,10648.727422
69841.875054,-74.020594,148.041188,10189.070123
69841.875365,296.082377,0.000000,10495.508323
69841.875676,148.041188,-148.041188,10189.070123
69841.875987,0.000000,-148.041188,10035.851024
69841.876298,0.000000,0.000000,10495.508323
69841.876609,-148.041188,222.061783,10572.117872
69841.876920,148.041188,74.020594,10342.289223
69841.877231,0.000000,0.000000,10189.070123
69841.877542,0.000000,370.102971,10035.851024
69841.877853,0.000000,0.000000,10648.727422
69841.878164,296.082377,0.000000,11491.432470
69841.878475,-148.041188,74.020594,10342.289223
69841.878786,0.000000,-296.082377,10265.679673
69841.879097,-222.061783,222.061783,10418.898773
69841.879408,0.000000,0.000000,10342.289223
69841.879718,0.000000,74.020594,10495.508323
69841.880029,0.000000,-148.041188,10342.289223
69841.880340,74.020594,148.041188,10342.289223
69841.880651,74.020594,74.020594,10342.289223
69841.880962,222.061783,74.020594,10418.898773
69841.881273,74.020594,0.000000,9959.241474
69841.881584,74.020594,-370.102971,10265.679673
69841.881895,-444.123565,74.020594,10725.336972
69841.882206,74.020594,74.020594,10418.898773
69841.882517,-222.061783,0.000000,10342.289223
69841.882828,0.000000,0.000000,10342.289223
69841.883139,74.020594,0.000000,10418.898773
69841.883450,-74.020594,148.041188,10342.289223
69841.883761,148.041188,222.061783,9882.631924
69841.884072,222.061783,0.000000,9882.631924
69841.884383,0.000000,0.000000,9882.631924
69841.884694,0.000000,0.000000,10035.851024
69841.885005,148.041188,0.000000,10342.289223
69841.885316,0.000000,0.000000,10418.898773
69841.885626,0.000000,0.000000,10418.898773
69841.885937,74.020594,0.000000,10495.508323
69841.886248,0.000000,-518.144159,10342.289223
69841.886559,0.000000,-518.144159,9806.022374
69841.886870,296.082377,0.000000,10725.336972
69841.887181,0.000000,0.000000,10572.117872
69841.887492,0.000000,296.082377,10418.898773
69841.887803,0.000000,0.000000,10265.679673
69841.888114,0.000000,0.000000,10035.851024
69841.888425,74.020594,-222.061783,10418.898773
69841.888736,0.000000,148.041188,10418.898773
69841.889047,0.000000,444.123565,10648.727422
69841.889358,148.041188,-222.061783,10112.460574
69841.889669,0.000000,-296.082377,10265.679673
69841.889980,0.000000,0.000000,10265.679673
69841.890291,222.061783,296.082377,10265.679673
69841.890602,-222.061783,370.102971,9806.022374
69841.890913,-296.082377,-370.102971,10035.851024
69841.891224,0.000000,222.061783,10189.070123
69841.891534,222.061783,370.102971,10189.070123
69841.891845,-296.082377,0.000000,10265.679673
69841.892156,0.000000,-222.061783,10112.460574
69841.892467,0.000000,0.000000,10265.679673
69841.892778,0.000000,296.082377,10418.898773
69841.893089,0.000000,-148.041188,10495.508323
69841.893400,-444.123565,-888.247130,10265.679673
69841.893711,0.000000,0.000000,10189.070123
69841.894022,444.123565,0.000000,10955.165621
69841.894333,222.061783,0.000000,10265.679673
69841.894644,-370.102971,0.000000,10418.898773
69841.894955,74.020594,-148.041188,10189.070123
69841.895266,222.061783,296.082377,10265.679673
69841.895577,148.041188,0.000000,10189.070123
69841.895888,-222.061783,-148.041188,10342.289223
69841.896199,444.123565,0.000000,9882.631924
69841.896510,0.000000,0.000000,10342.289223
69841.896821,74.020594,-148.041188,10418.898773
69841.897132,0.000000,0.000000,10342.289223
69841.897442,74.020594,0.000000,9806.022374
69841.897753,74.020594,222.061783,10189.070123
69841.898064,0.000000,74.020594,10189.070123
69841.898375,0.000000,-296.082377,10189.070123
69841.898686,0.000000,-222.061783,10342.289223
69841.898997,370.102971,370.102971,10801.946522
69841.899308,0.000000,0.000000,9576.193725
69841.899619,-222.061783,-222.061783,9959.241474
69841.899930,296.082377,0.000000,10495.508323
69841.900241,0.000000,592.164754,10418.898773
69841.900552,74.020594,0.000000,10342.289223
69841.900863,0.000000,-148.041188,10265.679673
69841.901174,0.000000,0.000000,10189.070123
69841.901485,148.041188,0.000000,10342.289223
69841.901796,444.123565,0.000000,10955.165621
69841.902107,296.082377,0.000000,10265.679673
69841.902418,0.000000,-740.205942,10572.117872
69841.902729,518.144159,0.000000,10265.679673
69841.903040,74.020594,74.020594,10418.898773
69841.903350,74.020594,-296.082377,10035.851024
69841.903661,74.020594,0.000000,10189.070123
69841.903972,-148.041188,222.061783,10342.289223
69841.904283,74.020594,0.000000,10342.289223
69841.904594,74.020594,-592.164754,11261.603821
69841.904905,-296.082377,0.000000,10342.289223
69841.905216,444.123565,222.061783,10112.460574
69841.905528,-222.061783,0.000000,10189.070123
69841.905839,0.000000,-296.082377,10572.117872
69841.906150,740.205942,0.000000,10955.165621
69841.906461,444.123565,0.000000,10495.508323
69841.906772,-148.041188,444.123565,10495.508323
69841.907083,888.247130,0.000000,10265.679673
69841.907394,370.102971,148.041188,10418.898773
69841.907705,0.000000,0.000000,10418.898773
69841.908016,370.102971,0.000000,10035.851024
69841.908327,-296.082377,-370.102971,10112.460574
69841.908638,0.000000,74.020594,10418.898773
69841.908949,518.144159,592.164754,10189.070123
69841.909260,148.041188,-666.185348,11261.603821
69841.909571,444.123565,-666.185348,9806.022374
69841.909882,74.020594,0.000000,9959.241474
69841.910193,0.000000,222.061783,10112.460574
69841.910504,148.041188,-222.061783,10265.679673
69841.910815,222.061783,0.000000,10342.289223
69841.911126,-222.061783,0.000000,10189.070123
69841.911437,74.020594,74.020594,10265.679673
69841.911748,-148.041188,666.185348,9652.803275
69841.912059,0.000000,-222.061783,9882.631924
69841.912370,518.144159,-592.164754,10112.460574
69841.912681,148.041188,0.000000,10342.289223
69841.912992,296.082377,0.000000,10418.898773
69841.913303,0.000000,0.000000,10418.898773
69841.913614,0.000000,0.000000,10189.070123
69841.913925,74.020594,0.000000,9959.241474
69841.914236,222.061783,74.020594,10265.679673
69841.914547,222.061783,222.061783,10189.070123
69841.914858,148.041188,148.041188,9806.022374
69841.915169,-296.082377,0.000000,11108.384721
69841.915480,-222.061783,-592.164754,10418.898773
69841.915792,444.123565,0.000000,10342.289223
69841.916103,74.020594,296.082377,10342.289223
69841.916414,-296.082377,0.000000,10725.336972
69841.916725,74.020594,0.000000,10189.070123
69841.917036,222.061783,0.000000,10189.070123
69841.917347,74.020594,444.123565,10035.851024
69841.917658,296.082377,518.144159,9882.631924
69841.917969,0.000000,0.000000,10418.898773
69841.918280,-370.102971,74.020594,10342.289223
69841.918591,296.082377,74.020594,10112.460574
69841.918902,-222.061783,0.000000,10342.289223
69841.919213,0.000000,-296.082377,10495.508323
69841.919524,0.000000,0.000000,10495.508323
69841.919835,0.000000,148.041188,10418.898773
69841.920146,0.000000,-370.102971,10572.117872
69841.920457,592.164754,0.000000,10495.508323
69841.920768,148.041188,0.000000,9806.022374
69841.921079,0.000000,148.041188,10725.336972
69841.921390,222.061783,0.000000,10342.289223
69841.921701,0.000000,0.000000,10495.508323
69841.922012,148.041188,0.000000,10495.508323
69841.922323,74.020594,0.000000,10342.289223
69841.922634,-148.041188,0.000000,10572.117872
69841.922945,0.000000,0.000000,10572.117872
69841.923256,222.061783,148.041188,10342.289223
69841.923567,0.000000,0.000000,10342.289223
69841.923878,0.000000,0.000000,10648.727422
69841.924189,74.020594,-148.041188,10265.679673
69841.924500,0.000000,-148.041188,10418.898773
69841.924811,222.061783,-592.164754,9806.022374
69841.925122,74.020594,0.000000,10418.898773
69841.925433,74.020594,-370.102971,10189.070123
69841.925744,74.020594,0.000000,10572.117872
69841.926055,0.000000,0.000000,10495.508323
69841.926367,0.000000,-444.123565,10342.289223
69841.926678,0.000000,0.000000,10265.679673
69841.926989,74.020594,0.000000,10035.851024
69841.927300,148.041188,0.000000,10572.117872
69841.927611,296.082377,-148.041188,10342.289223
69841.927922,222.061783,0.000000,10342.289223
69841.928233,370.102971,-518.144159,9346.365076
69841.928544,296.082377,0.000000,10418.898773
69841.928855,0.000000,-296.082377,10495.508323
69841.929166,74.020594,148.041188,10265.679673
69841.929477,0.000000,0.000000,10342.289223
69841.929788,0.000000,-296.082377,10189.070123
69841.930099,0.000000,-222.061783,10572.117872
69841.930410,74.020594,74.020594,10418.898773
69841.930721,0.000000,0.000000,10112.460574
69841.931032,-222.061783,-74.020594,10342.289223
69841.931343,0.000000,0.000000,10418.898773
69841.931654,-148.041188,-370.102971,10801.946522
69841.931965,148.041188,296.082377,10035.851024
69841.932276,74.020594,0.000000,10342.289223
69841.932587,0.000000,-148.041188,10342.289223
69841.932898,74.020594,0.000000,10265.679673
69841.933209,0.000000,296.082377,10035.851024
69841.933520,296.082377,222.061783,9806.022374
69841.933831,0.000000,0.000000,10189.070123
69841.934142,74.020594,0.000000,10265.679673
69841.934453,0.000000,74.020594,10265.679673
69841.934764,74.020594,0.000000,10035.851024
69841.935075,74.020594,0.000000,10418.898773
69841.935386,74.020594,74.020594,10189.070123
69841.935697,518.144159,74.020594,10495.508323
69841.936008,-518.144159,296.082377,9882.631924
69841.936319,-592.164754,74.020594,10725.336972
69841.936630,-444.123565,74.020594,10112.460574
69841.936942,-148.041188,74.020594,10342.289223
69841.937253,296.082377,-222.061783,10801.946522
69841.937564,296.082377,-222.061783,10189.070123
69841.937875,0.000000,-148.041188,10648.727422
69841.938186,0.000000,0.000000,10495.508323
69841.938497,222.061783,0.000000,10418.898773
69841.938808,0.000000,74.020594,10955.165621
69841.939119,74.020594,74.020594,10418.898773
69841.939430,74.020594,148.041188,10495.508323
69841.939741,-222.061783,0.000000,10418.898773
69841.940052,148.041188,0.000000,10648.727422
69841.940363,518.144159,296.082377,9806.022374
69841.940674,74.020594,222.061783,10035.851024
69841.940985,148.041188,0.000000,10878.556072
69841.941296,0.000000,74.020594,10418.898773
69841.941607,-148.041188,0.000000,10418.898773
69841.941918,148.041188,-222.061783,10342.289223
69841.942229,0.000000,-296.082377,10342.289223
69841.942540,0.000000,0.000000,10189.070123
69841.942851,222.061783,296.082377,10035.851024
69841.943162,0.000000,-296.082377,9959.241474
69841.943473,-296.082377,0.000000,9806.022374
69841.943784,148.041188,222.061783,10418.898773
69841.944095,148.041188,0.000000,10189.070123
69841.944406,370.102971,222.061783,10265.679673
69841.944717,74.020594,0.000000,10418.898773
69841.945028,-296.082377,0.000000,10725.336972
69841.945339,148.041188,0.000000,10342.289223
69841.945650,0.000000,-222.061783,10418.898773
69841.945961,-518.144159,-74.020594,9729.412825
69841.946272,148.041188,-666.185348,10495.508323
69841.946583,296.082377,148.041188,10418.898773
69841.946894,-296.082377,0.000000,10572.117872
69841.947206,444.123565,0.000000,10495.508323
69841.947517,148.041188,74.020594,10112.460574
69841.947828,222.061783,0.000000,10189.070123
69841.948139,222.061783,0.000000,10112.460574
69841.948450,0.000000,148.041188,10342.289223
69841.948761,0.000000,-592.164754,10572.117872
69841.949072,0.000000,-518.144159,11031.775171
69841.949383,0.000000,-296.082377,10955.165621
69841.949694,148.041188,-370.102971,10265.679673
69841.950005,148.041188,222.061783,10418.898773
69841.950316,74.020594,0.000000,10342.289223
69841.950627,0.000000,-222.061783,10342.289223
69841.950938,222.061783,0.000000,10035.851024
69841.951249,148.041188,0.000000,10265.679673
69841.951560,370.102971,222.061783,10035.851024
69841.951871,0.000000,0.000000,9576.193725
69841.952182,-74.020594,-518.144159,10418.898773
69841.952493,0.000000,0.000000,10572.117872
69841.952804,148.041188,0.000000,10265.679673
69841.953115,0.000000,0.000000,10418.898773
69841.953426,0.000000,0.000000,10572.117872
69841.953737,0.000000,0.000000,10418.898773
69841.954048,0.000000,0.000000,10265.679673
69841.954359,740.205942,-296.082377,10418.898773
69841.954670,222.061783,0.000000,9806.022374
69841.954981,-740.205942,0.000000,9806.022374
69841.955292,0.000000,296.082377,10725.336972
69841.955603,0.000000,0.000000,10112.460574
69841.955914,370.102971,0.000000,10112.460574
69841.956225,148.041188,0.000000,10035.851024
69841.956536,-296.082377,0.000000,10265.679673
69841.956847,-222.061783,0.000000,10648.727422
69841.957158,370.102971,-296.082377,10572.117872
69841.957469,0.000000,0.000000,10495.508323
69841.957781,0.000000,74.020594,10265.679673
69841.958092,0.000000,0.000000,10112.460574
69841.958403,-148.041188,-222.061783,10495.508323
69841.958714,592.164754,74.020594,10955.165621
69841.959025,222.061783,0.000000,10112.460574
69841.959336,740.205942,-74.020594,10572.117872
69841.959647,74.020594,0.000000,10265.679673
69841.959958,0.000000,0.000000,10265.679673
69841.960269,0.000000,0.000000,10495.508323
69841.960580,0.000000,74.020594,10495.508323
69841.960891,-222.061783,0.000000,10112.460574
69841.961202,-222.061783,-222.061783,10342.289223
69841.961513,74.020594,0.000000,10955.165621
69841.961824,0.000000,0.000000,10955.165621
69841.962135,0.000000,-888.247130,9806.022374
69841.962446,-222.061783,-296.082377,10035.851024
69841.962757,0.000000,0.000000,10265.679673
69841.963068,370.102971,148.041188,10265.679673
69841.963379,222.061783,0.000000,10035.851024
69841.963690,-148.041188,0.000000,10189.070123
69841.964001,74.020594,0.000000,10418.898773
69841.964312,0.000000,222.061783,10495.508323
69841.964623,0.000000,148.041188,9882.631924
69841.964934,-296.082377,0.000000,10801.946522
69841.965245,518.144159,0.000000,10955.165621
69841.965556,0.000000,0.000000,10189.070123
69841.965867,222.061783,-148.041188,10572.117872
69841.966178,0.000000,0.000000,10342.289223
69841.966489,0.000000,74.020594,10418.898773
69841.966800,222.061783,74.020594,10265.679673
69841.967111,370.102971,0.000000,10495.508323
69841.967422,74.020594,74.020594,10648.727422
69841.967733,74.020594,592.164754,10342.289223
69841.968045,74.020594,0.000000,11338.213370
69841.968356,0.000000,0.000000,10342.289223
69841.968667,-222.061783,-148.041188,10035.851024
69841.968978,-222.061783,0.000000,10725.336972
69841.969289,148.041188,0.000000,10418.898773
69841.969600,0.000000,0.000000,10112.460574
69841.969911,0.000000,-222.061783,10648.727422
69841.970222,222.061783,148.041188,10418.898773
69841.970533,74.020594,0.000000,10648.727422
69841.970844,0.000000,0.000000,10418.898773
69841.971155,0.000000,-296.082377,10112.460574
69841.971466,444.123565,0.000000,10035.851024
69841.971777,0.000000,0.000000,10035.851024
69841.972088,-74.020594,-222.061783,10418.898773
69841.972399,0.000000,-148.041188,10418.898773
69841.972710,0.000000,0.000000,10418.898773
69841.973021,148.041188,0.000000,10112.460574
69841.973332,0.000000,-148.041188,10189.070123
69841.973643,148.041188,-370.102971,10189.070123
69841.973954,0.000000,148.041188,10418.898773
69841.974265,592.164754,148.041188,10725.336972
69841.974576,0.000000,0.000000,10265.679673
69841.974887,148.041188,74.020594,10035.851024
69841.975198,0.000000,296.082377,9806.022374
69841.975509,296.082377,296.082377,10572.117872
69841.975820,296.082377,0.000000,10572.117872
69841.976131,0.000000,0.000000,10265.679673
69841.976442,74.020594,0.000000,10418.898773
69841.976753,148.041188,-222.061783,10342.289223
69841.977064,74.020594,74.020594,10418.898773
69841.977375,74.020594,-74.020594,10342.289223
69841.977686,518.144159,74.020594,10801.946522
69841.977997,-148.041188,2664.741391,10035.851024
69841.978308,814.226536,4145.153275,10572.117872
69841.978620,222.061783,3182.885551,11721.261119
69841.978931,-444.123565,518.144159,10878.556072
69841.979242,1924.535449,3108.864956,8733.488677
69841.979553,4737.318029,5181.441594,8120.612279
69841.979864,2294.638420,3034.844362,10189.070123
69841.980175,-740.205942,1110.308913,11951.089769
69841.980486,1036.288319,0.000000,10955.165621
69841.980797,2516.700203,-592.164754,8273.831378
69841.981108,3404.947333,0.000000,9116.536426
69841.981419,2738.761985,1850.514855,11031.775171
69841.981730,2590.720797,1036.288319,11644.651570
69841.982041,3923.091493,-222.061783,9806.022374
69841.982352,4145.153275,1406.391290,8580.269578
69841.982663,2220.617826,3552.988522,9806.022374
69841.982974,814.226536,3849.070898,12793.794817
69841.983285,-1036.288319,3552.988522,13100.233016
69841.983596,-148.041188,3552.988522,10418.898773
69841.983907,2590.720797,2812.782580,10265.679673
69841.984218,2886.803174,2812.782580,10801.946522
69841.984529,2738.761985,3256.906145,10035.851024
69841.984840,5625.565159,1628.453072,9729.412825
69841.985151,6513.812290,-370.102971,8733.488677
69841.985462,5477.523971,666.185348,7814.174080
69841.985773,5995.668130,2886.803174,9422.974625
69841.986084,2368.659014,1036.288319,11414.822920
69841.986395,-148.041188,74.020594,12410.747068
69841.986706,1406.391290,2368.659014,11721.261119
69841.987017,3256.906145,3478.967927,9882.631924
69841.987328,2812.782580,4737.318029,10955.165621
69841.987639,3627.009116,5773.606348,10955.165621
69841.987950,4589.276840,6513.812290,10189.070123
69841.988261,5773.606348,6661.853478,9346.365076
69841.988572,7179.997637,7624.121203,8810.098227
69841.988884,5181.441594,5995.668130,10418.898773
69841.989195,2146.597232,1850.514855,11951.089769
69841.989506,3923.091493,222.061783,10801.946522
69841.989817,6735.874072,740.205942,8886.707777
69841.990128,5921.647536,-296.082377,7967.393179
69841.990439,3478.967927,74.020594,10418.898773
69841.990750,1998.556043,2294.638420,12487.356617
69841.991061,1998.556043,2516.700203,11108.384721
69841.991372,3108.864956,2442.679609,9882.631924
69841.991683,2516.700203,3552.988522,10265.679673
69841.991994,296.082377,4663.297435,11721.261119
69841.992305,-814.226536,3330.926739,13100.233016
69841.992616,2146.597232,3182.885551,11261.603821
69841.992927,5625.565159,4367.215058,8273.831378
69841.993238,5181.441594,3701.029710,8197.221829
69841.993549,4441.235652,3923.091493,9882.631924
69841.993860,4293.194464,5625.565159,10342.289223
69841.994171,4885.359217,3775.050304,8963.317327
69841.994482,3775.050304,1628.453072,9116.536426
69841.994793,4367.215058,1184.329507,9652.803275
69841.995104,2738.761985,296.082377,10801.946522
69841.995415,2368.659014,-222.061783,9806.022374
69841.995726,4885.359217,2590.720797,8886.707777
69841.996037,5329.482782,4589.276840,8427.050478
69841.996348,1036.288319,4515.256246,10878.556072
69841.996659,-1110.308913,5255.462188,13942.938064
69841.996970,-592.164754,5255.462188,12563.966167
69841.997281,1776.494261,3330.926739,10265.679673
69841.997592,3108.864956,2146.597232,9193.145976
69841.997903,3330.926739,3404.947333,9729.412825
69841.998214,3627.009116,4589.276840,10035.851024
69841.998525,3330.926739,4441.235652,10265.679673
69841.998836,4071.132681,3552.988522,9882.631924
69841.999147,4959.379811,2960.823768,9269.755526
69841.999459,1998.556043,1702.473667,10955.165621
69841.999770,2294.638420,3552.988522,10878.556072
69842.000081,2442.679609,3775.050304,10725.336972
69842.000392,2220.617826,-370.102971,10418.898773
69842.000703,1628.453072,-1332.370696,10572.117872
69842.001014,2442.679609,1850.514855,9729.412825
69842.001325,3108.864956,3627.009116,9576.193725
69842.001636,2516.700203,6809.894666,11951.089769
69842.001947,2664.741391,7402.059420,11031.775171
69842.002258,2812.782580,4071.132681,11031.775171
69842.002569,2590.720797,1406.391290,9576.193725
69842.002880,5329.482782,3108.864956,7354.516781
69842.003191,7031.956449,6217.729913,7967.393179
69842.003502,5477.523971,3627.009116,10035.851024
69842.003813,74.020594,-370.102971,12104.308868
69842.004124,1406.391290,518.144159,9039.926876
69842.004435,3775.050304,3478.967927,8810.098227
69842.004746,2368.659014,4145.153275,10418.898773
69842.005057,-1332.370696,1406.391290,14632.424012
69842.005368,148.041188,-740.205942,12180.918418
69842.005679,5329.482782,666.185348,8350.440928
69842.005990,7105.977043,3478.967927,6818.249932
69842.006302,3701.029710,3552.988522,10112.460574
69842.006613,-814.226536,3404.947333,14249.376263
69842.006924,2072.576638,5995.668130,11797.870669
69842.007235,5033.400406,8290.306550,9269.755526
69842.007546,1628.453072,4959.379811,10648.727422
69842.007857,-1184.329507,2516.700203,13942.938064
69842.008168,3701.029710,4959.379811,11644.651570
69842.008479,7920.203579,4441.235652,8503.660028
69842.008790,8290.306550,-1924.535449,6741.640382
69842.009101,5403.503377,666.185348,9269.755526
69842.009412,4959.379811,7698.141797,10648.727422
69842.009723,4737.318029,3923.091493,11797.870669
69842.010034,0.000000,-3182.885551,12180.918418
69842.010345,296.082377,-1258.350101,9039.926876
69842.010657,4885.359217,4145.153275,9806.022374
69842.010968,1406.391290,814.226536,12104.308868
69842.011279,-1998.556043,444.123565,12487.356617
69842.011590,5255.462188,6439.791695,10112.460574
69842.011901,9178.553681,8586.388927,7431.126331
69842.012212,3182.885551,2738.761985,10878.556072
69842.012523,-814.226536,2220.617826,11414.822920
69842.012834,4071.132681,5625.565159,9116.536426
69842.013145,6513.812290,6069.688724,8733.488677
69842.013456,2738.761985,3627.009116,10878.556072
69842.013767,-1184.329507,1184.329507,11874.480219
69842.014078,3923.091493,1406.391290,10648.727422
69842.014389,8216.285956,1258.350101,8503.660028
69842.014700,7031.956449,1110.308913,5439.278036
69842.015012,7698.141797,1998.556043,8580.269578
69842.015323,4367.215058,3775.050304,12334.137518
69842.015634,814.226536,5995.668130,13483.280765
69842.015945,814.226536,2812.782580,11644.651570
69842.016256,814.226536,148.041188,10495.508323
69842.016567,3256.906145,4145.153275,10725.336972
69842.016878,3034.844362,6587.832884,10572.117872
69842.017189,592.164754,3997.112087,12563.966167
69842.017500,4071.132681,4663.297435,10725.336972
69842.017811,7698.141797,7031.956449,7737.564530
69842.018122,7105.977043,2294.638420,8120.612279
69842.018433,2220.617826,-888.247130,10495.508323
69842.018744,2886.803174,4145.153275,10801.946522
69842.019055,5107.421000,7476.080014,9806.022374
69842.019366,222.061783,296.082377,12640.575717
69842.019678,-3034.844362,-3478.967927,13636.499864
69842.019989,3256.906145,296.082377,9116.536426
69842.020300,5329.482782,4219.173869,8503.660028
69842.020611,6735.874072,5181.441594,9116.536426
69842.020922,4219.173869,6217.729913,9806.022374
69842.021233,0.000000,3330.926739,11721.261119
69842.021544,2294.638420,1998.556043,12104.308868
69842.021855,2886.803174,2812.782580,9576.193725
69842.022166,1480.411884,4441.235652,8273.831378
69842.022477,3478.967927,3330.926739,10801.946522
69842.022788,-148.041188,74.020594,12257.527968
69842.023099,1628.453072,-296.082377,11644.651570
69842.023410,7254.018232,1036.288319,6971.469032
69842.023721,8142.265362,2738.761985,6128.763984
69842.024033,3256.906145,4145.153275,8656.879127
69842.024344,-962.267725,1628.453072,12640.575717
69842.024655,-2368.659014,-2294.638420,14172.766713
69842.024966,888.247130,-592.164754,9806.022374
69842.025277,4145.153275,4811.338623,7354.516781
69842.025588,592.164754,2220.617826,10418.898773
69842.025899,-2812.782580,-1776.494261,15628.348159
69842.026210,74.020594,1776.494261,12334.137518
69842.026521,8438.347739,5551.544565,4826.401637
69842.026832,9548.656652,9104.533087,7814.174080
69842.027143,1406.391290,4663.297435,10112.460574
69842.027454,-5847.626942,74.020594,14096.157163
69842.027765,-4515.256246,-3182.885551,12947.013916
69842.028076,2294.638420,1850.514855,8963.317327
69842.028388,5625.565159,4885.359217,8273.831378
69842.028699,-3182.885551,-2590.720797,12180.918418
69842.029010,-5699.585753,-5033.400406,13023.623466
69842.029321,4663.297435,370.102971,9346.365076
69842.029632,7624.121203,1332.370696,6588.421283
69842.029943,1036.288319,-296.082377,6818.249932
69842.030254,-2442.679609,740.205942,13023.623466
69842.030565,-3627.009116,-666.185348,14479.204912
69842.030876,-1776.494261,-2664.741391,8963.317327
69842.031187,1850.514855,814.226536,8427.050478
69842.031498,-2516.700203,2368.659014,10955.165621
69842.031809,-7476.080014,74.020594,15704.957709
69842.032120,-4071.132681,-3775.050304,13100.233016
69842.032431,2664.741391,-1924.535449,4903.011187
69842.032743,7698.141797,222.061783,5056.230287
69842.033054,-1110.308913,-592.164754,12717.185267
69842.033365,-5699.585753,-4071.132681,14709.033562
69842.033676,-2812.782580,-5477.523971,9806.022374
69842.033987,3256.906145,-814.226536,4903.011187
69842.034298,4071.132681,2146.597232,8044.002729
69842.034609,-5551.544565,-1480.411884,15858.176809
69842.034920,-9474.636058,-4145.153275,15475.129060
69842.035231,1480.411884,-444.123565,9422.974625
69842.035542,8660.409521,2590.720797,6128.763984
69842.035853,1702.473667,1184.329507,6128.763984
69842.036164,-6069.688724,2072.576638,15015.471761
69842.036475,-5403.503377,1554.432478,18079.853753
69842.036786,-1702.473667,-370.102971,8886.707777
69842.037097,4885.359217,1702.473667,5132.839837
69842.037409,5773.606348,2812.782580,8120.612279
69842.037720,-3182.885551,-1998.556043,12947.013916
69842.038031,-2960.823768,-2442.679609,13789.718964
69842.038342,5995.668130,-222.061783,7277.907231
69842.038653,4737.318029,-592.164754,5209.449386
69842.038964,-962.267725,-1924.535449,12180.918418
69842.039275,-4589.276840,0.000000,14402.595362
69842.039586,-3627.009116,2072.576638,11644.651570
69842.039897,888.247130,-814.226536,11184.994271
69842.040208,592.164754,-3034.844362,11568.042020
69842.040519,-2146.597232,-2516.700203,9806.022374
69842.040830,518.144159,1628.453072,9499.584175
69842.041141,2442.679609,2738.761985,10495.508323
69842.041452,-2738.761985,2294.638420,11414.822920
69842.041764,-666.185348,888.247130,12793.794817
69842.042075,592.164754,-3404.947333,10801.946522
69842.042386,-2220.617826,-1776.494261,8503.660028
69842.042697,2294.638420,814.226536,7277.907231
69842.043008,3034.844362,666.185348,13176.842566
69842.043319,-5773.606348,-3849.070898,15015.471761
69842.043630,-1258.350101,-3478.967927,9959.241474
69842.043941,7772.162391,814.226536,4136.915689
69842.044252,4589.276840,2220.617826,6128.763984
69842.044563,-1998.556043,592.164754,12257.527968
69842.044874,-4737.318029,-444.123565,14632.424012
69842.045185,-2368.659014,-592.164754,12104.308868
69842.045496,2442.679609,1702.473667,7431.126331
69842.045807,-1184.329507,1480.411884,10418.898773
69842.046119,-5403.503377,-2442.679609,11797.870669
69842.046430,1406.391290,1184.329507,12793.794817
69842.046741,10584.944971,2368.659014,6588.421283
69842.047052,4589.276840,-1628.453072,4366.744339
69842.047363,-1036.288319,-962.267725,10495.508323
69842.047674,-1036.288319,1924.535449,13789.718964
69842.047985,-518.144159,3404.947333,12104.308868
69842.048296,444.123565,0.000000,8810.098227
69842.048607,-2368.659014,-3034.844362,12104.308868
69842.048918,-5625.565159,-962.267725,14096.157163
69842.049229,2220.617826,444.123565,9882.631924
69842.049540,8882.471304,-296.082377,5898.935335
69842.049851,4515.256246,-740.205942,5132.839837
69842.050162,296.082377,-3478.967927,12870.404366
69842.050474,-7698.141797,-4589.276840,19841.873398
69842.050785,-4219.173869,3182.885551,13713.109414
69842.051096,7476.080014,4663.297435,3524.039291
69842.051407,-4885.359217,-3775.050304,10648.727422
69842.051718,-7105.977043,-7179.997637,15015.471761
69842.052029,3478.967927,4145.153275,10648.727422
69842.052340,6069.688724,3108.864956,7507.735880
69842.052651,3404.947333,-4515.256246,5669.106685
69842.052962,3108.864956,-1258.350101,7967.393179
69842.053273,-1554.432478,2516.700203,12180.918418
69842.053584,-5477.523971,1110.308913,14325.985813
69842.053895,518.144159,-592.164754,10878.556072
69842.054206,518.144159,-962.267725,7354.516781
69842.054517,0.000000,666.185348,10955.165621
69842.054828,-2146.597232,1258.350101,13713.109414
69842.055140,0.000000,1406.391290,10035.851024
69842.055451,4959.379811,1850.514855,7967.393179
69842.055762,2368.659014,2072.576638,8963.317327
69842.056073,-2072.576638,1184.329507,11184.994271
69842.056384,-1702.473667,1110.308913,11031.775171
69842.056695,666.185348,2146.597232,10189.070123
69842.057006,740.205942,2812.782580,10955.165621
69842.057317,-3182.885551,-740.205942,12410.747068
69842.057628,-2960.823768,-3182.885551,12027.699319
69842.057939,3849.070898,222.061783,7201.297681
69842.058250,6439.791695,3256.906145,5669.106685
69842.058561,-666.185348,0.000000,10725.336972
69842.058872,-4219.173869,-3627.009116,15321.909960
69842.059183,-2886.803174,222.061783,11951.089769
69842.059495,2368.659014,2960.823768,7354.516781
69842.059806,888.247130,-1406.391290,9193.145976
69842.060117,-3997.112087,-2590.720797,12793.794817
69842.060428,-1406.391290,0.000000,13559.890315
69842.060739,814.226536,2368.659014,10418.898773
69842.061050,8438.347739,518.144159,5056.230287
69842.061361,2664.741391,-4737.318029,7584.345430
69842.061672,-5625.565159,-3627.009116,15168.690860
69842.061983,-1776.494261,2886.803174,13483.280765
69842.062294,4219.173869,1480.411884,9269.755526
69842.062605,-1036.288319,-5033.400406,9576.193725
69842.062916,-1258.350101,-5995.668130,8886.707777
69842.063227,1776.494261,74.020594,11721.261119
69842.063538,1036.288319,370.102971,9959.241474
69842.063850,2146.597232,-2294.638420,7124.688131
69842.064161,-2146.597232,-888.247130,10418.898773
69842.064472,-3627.009116,0.000000,14938.862211
69842.064783,-2146.597232,888.247130,13713.109414
69842.065094,-592.164754,-740.205942,7814.174080
69842.065405,3552.988522,-1110.308913,8044.002729
69842.065716,4737.318029,1924.535449,10189.070123
69842.066027,-962.267725,740.205942,10801.946522
69842.066338,-1258.350101,-814.226536,9806.022374
69842.066649,2738.761985,148.041188,8886.707777
69842.066960,-3404.947333,2590.720797,10648.727422
69842.067271,-2072.576638,2590.720797,15321.909960
69842.067582,-1850.514855,-1332.370696,14019.547613
69842.067893,2664.741391,-2294.638420,4290.134789
69842.068205,9992.780217,1480.411884,5209.449386
69842.068516,74.020594,-1036.288319,10572.117872
69842.068827,-7994.224174,666.185348,14709.033562
69842.069138,-148.041188,3849.070898,13559.890315
69842.069449,-518.144159,3256.906145,8580.269578
69842.069760,-2146.597232,888.247130,7660.954980
69842.070071,-2146.597232,-962.267725,14402.595362
69842.070382,-4219.173869,1776.494261,14019.547613
69842.070693,5255.462188,3256.906145,6128.763984
69842.071004,8068.244768,370.102971,6435.202183
69842.071315,-3108.864956,-518.144159,9193.145976
69842.071626,-5255.462188,2812.782580,14479.204912
69842.071937,-2072.576638,962.267725,15398.519510
69842.072248,-3775.050304,-740.205942,9116.536426
69842.072559,4515.256246,1554.432478,6818.249932
69842.072871,3627.009116,1554.432478,10495.508323
69842.073182,-4293.194464,-3552.988522,11797.870669
69842.073493,1480.411884,-2220.617826,8273.831378
69842.073804,8438.347739,2368.659014,6205.373534
69842.074115,-2442.679609,666.185348,11108.384721
69842.074426,-7179.997637,-1258.350101,15934.786358
69842.074737,-3182.885551,-814.226536,11414.822920
69842.075048,666.185348,-1554.432478,7584.345430
69842.075359,-518.144159,-3034.844362,8810.098227
69842.075670,-4515.256246,-2664.741391,16317.834107
69842.075981,-1776.494261,-1036.288319,14249.376263
69842.076292,10732.986159,-1110.308913,5132.839837
69842.076603,10436.903782,-1554.432478,1532.190996
69842.076914,2294.638420,-4811.338623,7660.954980
69842.077226,-4737.318029,-1110.308913,15245.300410
69842.077537,-5477.523971,3775.050304,16854.100956
69842.077848,-3775.050304,-444.123565,12180.918418
69842.078159,-3478.967927,-5181.441594,8503.660028
69842.078470,444.123565,-3330.926739,11414.822920
69842.078781,2146.597232,-1110.308913,11874.480219
69842.079092,4367.215058,-296.082377,7277.907231
69842.079403,6587.832884,962.267725,6435.202183
69842.079714,4071.132681,518.144159,7277.907231
69842.080025,-4441.235652,-1998.556043,12410.747068
69842.080336,-8364.327145,-3701.029710,14709.033562
69842.080647,-1998.556043,1406.391290,12717.185267
69842.080958,1110.308913,2812.782580,8197.221829
69842.081269,-518.144159,-3627.009116,9882.631924
69842.081581,-3849.070898,-3775.050304,12410.747068
69842.081892,3701.029710,1332.370696,7890.783629
69842.082203,7402.059420,5551.544565,7737.564530
69842.082514,2442.679609,1998.556043,8273.831378
69842.082825,-2146.597232,1480.411884,12563.966167
69842.083136,-4219.173869,1036.288319,11721.261119
69842.083447,-2220.617826,0.000000,11184.994271
69842.083758,-2220.617826,-592.164754,10801.946522
69842.084069,-3330.926739,74.020594,11721.261119
69842.084380,-2664.741391,-222.061783,12947.013916
69842.084691,2220.617826,888.247130,8503.660028
69842.085002,6883.915261,2368.659014,4519.963438
69842.085313,4145.153275,2516.700203,7890.783629
69842.085624,-3330.926739,1924.535449,14862.252661
69842.085936,-4071.132681,1110.308913,12870.404366
69842.086247,1998.556043,0.000000,8197.221829
69842.086558,-666.185348,-1406.391290,7737.564530
69842.086869,-2812.782580,74.020594,11184.994271
69842.087180,-2220.617826,1554.432478,17007.320056
69842.087491,-1628.453072,-666.185348,13330.061665
69842.087802,9178.553681,1850.514855,4903.011187
69842.088113,14137.933492,2960.823768,2221.676944
69842.088424,-148.041188,-592.164754,7967.393179
69842.088735,-8808.450710,370.102971,17466.977354
69842.089046,-3108.864956,666.185348,16241.224558
69842.089357,-4071.132681,-1480.411884,10878.556072
69842.089668,222.061783,-1850.514855,8810.098227
69842.089979,4145.153275,-666.185348,9806.022374
69842.090290,-296.082377,-2368.659014,10112.460574
69842.090602,4145.153275,-370.102971,8963.317327
69842.090913,7994.224174,1776.494261,6894.859482
69842.091224,-296.082377,1036.288319,10418.898773
69842.091535,-4737.318029,-666.185348,13942.938064
69842.091846,-1554.432478,-296.082377,11184.994271
69842.092157,-296.082377,-2220.617826,9269.755526
69842.092468,-1110.308913,-4219.173869,10495.508323
69842.092779,-3627.009116,-2960.823768,12947.013916
69842.093090,-2960.823768,-814.226536,11644.651570
69842.093401,4367.215058,1776.494261,8273.831378
69842.093712,6661.853478,2294.638420,7431.126331
69842.094023,-1332.370696,-1480.411884,11108.384721
69842.094334,-3404.947333,-370.102971,13330.061665
69842.094645,1480.411884,2590.720797,10955.165621
69842.094957,592.164754,-1258.350101,8427.050478
69842.095268,-2812.782580,-5107.421000,8580.269578
69842.095579,-5847.626942,-2294.638420,11874.480219
69842.095890,-1702.473667,518.144159,16164.615008
69842.096201,1554.432478,888.247130,9346.365076
69842.096512,6957.935855,666.185348,3753.867940
69842.096823,5699.585753,-1036.288319,7354.516781
69842.097134,-2294.638420,-1184.329507,12410.747068
69842.097445,1184.329507,3701.029710,11338.213370
69842.097756,666.185348,3108.864956,7814.174080
69842.098067,-7698.141797,-2960.823768,12793.794817
69842.098378,-8808.450710,-2960.823768,16624.272307
69842.098689,-2220.617826,2886.803174,13176.842566
69842.099000,6957.935855,3775.050304,6511.811733
69842.099312,9474.636058,1480.411884,3677.258390
69842.099623,1850.514855,666.185348,10035.851024
69842.099934,-3997.112087,-2220.617826,12180.918418
69842.100245,-1332.370696,0.000000,10725.336972
69842.100556,-2664.741391,2072.576638,9193.145976
69842.100867,-1628.453072,2664.741391,13406.671215
69842.101178,-4959.379811,-2072.576638,14938.862211
69842.101489,-5403.503377,-5107.421000,10648.727422
69842.101800,6217.729913,74.020594,6588.421283
69842.102111,8808.450710,2442.679609,3447.429741
69842.102422,444.123565,3478.967927,9959.241474
69842.102733,-5403.503377,296.082377,16471.053207
69842.103044,-2664.741391,-1480.411884,13406.671215
69842.103355,2294.638420,962.267725,5592.497135
69842.103667,2812.782580,2738.761985,4060.306139
69842.103978,-6439.791695,-1110.308913,16394.443657
69842.104289,-12139.377449,-4219.173869,21067.626195
69842.104600,1332.370696,888.247130,12180.918418
69842.104911,15322.262999,518.144159,-1455.581446
69842.105222,8512.368333,-2664.741391,0.000000
69842.105533,-4441.235652,-1184.329507,15628.348159
69842.105844,-7031.956449,4367.215058,19688.654299
69842.106155,-3256.906145,666.185348,12027.699319
69842.106466,-222.061783,-6661.853478,7277.907231
69842.106777,74.020594,-3478.967927,8810.098227
69842.107088,-2590.720797,2368.659014,12027.699319
69842.107399,-444.123565,2072.576638,12717.185267
69842.107710,6143.709319,666.185348,9193.145976
69842.108021,7031.956449,-1110.308913,5209.449386
69842.108332,2368.659014,518.144159,9729.412825
69842.108643,-3256.906145,2294.638420,12334.137518
69842.108953,1850.514855,3775.050304,10725.336972
69842.109264,1332.370696,-962.267725,9422.974625
69842.109575,-3701.029710,-4811.338623,11261.603821
69842.109886,-1406.391290,-1110.308913,12257.527968
69842.110197,74.020594,2664.741391,10265.679673
69842.110508,4737.318029,-444.123565,9116.536426
69842.110819,3404.947333,-1184.329507,9039.926876
69842.111130,1110.308913,592.164754,8580.269578
69842.111441,0.000000,1776.494261,11108.384721
69842.111752,-1406.391290,-1036.288319,11108.384721
69842.112063,-4885.359217,74.020594,10342.289223
69842.112374,-2368.659014,2294.638420,14479.204912
69842.112685,74.020594,222.061783,12717.185267
69842.112996,-740.205942,-2146.597232,7814.174080
69842.113307,1850.514855,-1184.329507,7354.516781
69842.113617,1554.432478,1702.473667,9882.631924
69842.113928,-2146.597232,2590.720797,12717.185267
69842.114239,-1184.329507,666.185348,11414.822920
69842.114550,3775.050304,-2294.638420,7277.907231
69842.114861,1258.350101,-2294.638420,7967.393179
69842.115172,-1702.473667,-296.082377,12104.308868
69842.115483,-2294.638420,74.020594,12640.575717
69842.115794,962.267725,-2812.782580,9576.193725
69842.116105,4145.153275,1924.535449,8120.612279
69842.116416,4219.173869,5625.565159,10265.679673
69842.116727,-2294.638420,-1184.329507,12257.527968
69842.117038,1184.329507,-518.144159,11031.775171
69842.117349,6661.853478,2664.741391,6894.859482
69842.117660,1258.350101,1036.288319,8120.612279
69842.117971,-3775.050304,-2220.617826,15015.471761
69842.118281,-4219.173869,-296.082377,15398.519510
69842.118592,1998.556043,1258.350101,7737.564530
69842.118903,5107.421000,-518.144159,4979.620737
69842.119214,740.205942,222.061783,10801.946522
69842.119525,-4737.318029,1480.411884,16624.272307
69842.119836,-2886.803174,-148.041188,13559.890315
69842.120147,3478.967927,-1850.514855,5592.497135
69842.120458,6957.935855,370.102971,3370.820191
69842.120769,-1110.308913,-444.123565,11951.089769
69842.121080,-10140.821405,-2146.597232,19152.387450
69842.121391,-3775.050304,-370.102971,14938.862211
69842.121702,7846.182985,2368.659014,4366.744339
69842.122013,7772.162391,1702.473667,2298.286494
69842.122324,-1406.391290,-1554.432478,11644.651570
69842.122635,-8142.265362,-1628.453072,17007.320056
69842.122945,-1628.453072,296.082377,12027.699319
69842.123256,5995.668130,592.164754,6435.202183
69842.123567,1036.288319,-1258.350101,6588.421283
69842.123878,-7105.977043,-1850.514855,13483.280765
69842.124189,-4737.318029,-814.226536,15245.300410
69842.124500,2072.576638,2146.597232,8580.269578
69842.124811,4959.379811,592.164754,5669.106685
69842.125122,-1480.411884,-3478.967927,9806.022374
69842.125433,-5699.585753,-2368.659014,13176.842566
69842.125744,6809.894666,5403.503377,9882.631924
69842.126055,6217.729913,5699.585753,5669.106685
69842.126366,-2738.761985,-3552.988522,9882.631924
69842.126677,-6291.750507,-3701.029710,15858.176809
69842.126988,-2590.720797,4589.276840,12180.918418
69842.127299,2664.741391,2738.761985,6894.859482
69842.127609,962.267725,-5033.400406,7967.393179
69842.127920,-6883.915261,-3256.906145,12563.966167
69842.128231,-814.226536,4145.153275,14938.862211
69842.128542,3997.112087,3552.988522,11797.870669
69842.128853,0.000000,-2368.659014,4060.306139
69842.129164,2220.617826,-962.267725,6818.249932
69842.129475,888.247130,2664.741391,14709.033562
69842.129786,-7846.182985,-2294.638420,14938.862211
69842.130097,-814.226536,-2368.659014,9422.974625
69842.130408,6883.915261,-1628.453072,3217.601092
69842.130719,1702.473667,-1258.350101,8963.317327
69842.131030,-4737.318029,-222.061783,14709.033562
69842.131341,-4811.338623,222.061783,11951.089769
69842.131652,-2294.638420,1258.350101,9116.536426
69842.131963,2960.823768,2368.659014,7354.516781
69842.132274,-2368.659014,0.000000,11031.775171
69842.132584,-10066.800811,-4959.379811,15551.738609
69842.132895,2960.823768,-1036.288319,9422.974625
69842.133206,12805.562797,3775.050304,-383.047749
69842.133517,2886.803174,-1850.514855,6665.030833
69842.133828,-8438.347739,-3627.009116,17160.539155
69842.134139,-2812.782580,2442.679609,15858.176809
69842.134450,4441.235652,2738.761985,6894.859482
69842.134761,2664.741391,-4367.215058,4519.963438
69842.135072,-2590.720797,-4367.215058,12257.527968
69842.135383,-7254.018232,1110.308913,15475.129060
69842.135694,0.000000,2812.782580,11721.261119
69842.136005,5847.626942,-592.164754,6435.202183
69842.136316,1406.391290,-1036.288319,6741.640382
69842.136627,-4145.153275,740.205942,13559.890315
69842.136938,-1776.494261,3775.050304,14402.595362
69842.137248,6069.688724,4071.132681,6971.469032
69842.137559,3701.029710,-1628.453072,5439.278036
69842.137870,-2664.741391,-4885.359217,12487.356617
69842.138181,-5033.400406,666.185348,14019.547613
69842.138492,3256.906145,7476.080014,10265.679673
69842.138803,3552.988522,5255.462188,7277.907231
69842.139114,0.000000,-3997.112087,9729.412825
69842.139425,-6957.935855,-3701.029710,15245.300410
69842.139736,-4293.194464,1628.453072,12487.356617
69842.140047,7624.121203,3849.070898,7277.907231
69842.140358,5625.565159,814.226536,5056.230287
69842.140669,-1332.370696,1036.288319,10878.556072
69842.140980,-6587.832884,1332.370696,17007.320056
69842.141291,-962.267725,-444.123565,13559.890315
69842.141602,5255.462188,2442.679609,5132.839837
69842.141912,7846.182985,2590.720797,4213.525239
69842.142223,-3330.926739,-2442.679609,14249.376263
69842.142534,-6587.832884,-3701.029710,15321.909960
69842.142845,1702.473667,2368.659014,9806.022374
69842.143156,1554.432478,1110.308913,5822.325785
69842.143467,-3923.091493,-3182.885551,12717.185267
69842.143778,-5551.544565,-3478.967927,16854.100956
69842.144089,-1702.473667,-2368.659014,11031.775171
69842.144400,7624.121203,-2294.638420,4290.134789
69842.144711,6883.915261,-666.185348,4826.401637
69842.145022,0.000000,1110.308913,10418.898773
69842.145333,-4663.297435,-370.102971,14096.157163
69842.145644,-1406.391290,-1184.329507,13023.623466
69842.145955,2590.720797,1332.370696,6741.640382
69842.146266,1776.494261,2294.638420,9806.022374
69842.146576,-3775.050304,-2738.761985,15398.519510
69842.146887,-1776.494261,-592.164754,12640.575717
69842.147198,9770.718434,1924.535449,5132.839837
69842.147509,7402.059420,-2368.659014,4366.744339
69842.147820,1258.350101,-1628.453072,11414.822920
69842.148131,-296.082377,814.226536,13559.890315
69842.148442,-2960.823768,1110.308913,13406.671215
69842.148753,-296.082377,-2516.700203,10801.946522
69842.149064,0.000000,-2738.761985,8197.221829
69842.149375,-3701.029710,-1554.432478,11491.432470
69842.149686,-2812.782580,-1184.329507,14555.814462
69842.149997,2146.597232,518.144159,9806.022374
69842.150308,3404.947333,888.247130,5745.716235
69842.150619,1702.473667,-296.082377,9116.536426
69842.150930,-518.144159,1184.329507,13406.671215
69842.151240,-3256.906145,2220.617826,12104.308868
69842.151551,-1184.329507,-740.205942,9346.365076
69842.151862,888.247130,-1702.473667,8503.660028
69842.152173,-740.205942,0.000000,8580.269578
69842.152484,-4071.132681,2368.659014,11261.603821
69842.152795,148.041188,2442.679609,13176.842566
69842.153106,4145.153275,-2368.659014,9959.241474
69842.153417,-592.164754,-3923.091493,7201.297681
69842.153728,5181.441594,74.020594,5975.544884
69842.154039,7105.977043,1924.535449,7660.954980
69842.154350,-4589.276840,1332.370696,11261.603821
69842.154661,-8808.450710,-2960.823768,15168.690860
69842.154972,-9400.615463,-4737.318029,15092.081311
69842.155283,-4071.132681,74.020594,10955.165621
69842.155594,3330.926739,2368.659014,8273.831378
69842.155904,666.185348,-3404.947333,8810.098227
69842.156215,-2368.659014,-3701.029710,10189.070123
69842.156526,7031.956449,1776.494261,9422.974625
69842.156837,3701.029710,0.000000,6128.763984
69842.157148,-2886.803174,-2960.823768,7277.907231
69842.157459,-3627.009116,3256.906145,12717.185267
69842.157770,-9548.656652,3775.050304,17466.977354
69842.158081,-12805.562797,-4737.318029,15551.738609
69842.158392,-7328.038826,-8512.368333,7354.516781
69842.158703,1702.473667,1184.329507,4749.792088
69842.159014,6809.894666,2886.803174,8120.612279
69842.159325,-592.164754,-7402.059420,11874.480219
69842.159636,-5329.482782,-5033.400406,8886.707777
69842.159947,3997.112087,1110.308913,5592.497135
69842.160258,-2516.700203,370.102971,11491.432470
69842.160568,-11103.089130,-5107.421000,15245.300410
69842.160879,-11473.192101,-3849.070898,15781.567259
69842.161190,-666.185348,-2664.741391,8886.707777
69842.161501,6957.935855,-1554.432478,3064.381992
69842.161812,3330.926739,-962.267725,6205.373534
69842.162123,-6291.750507,-5255.462188,13330.061665
69842.162434,-7476.080014,-5181.441594,16317.834107
69842.162745,-1480.411884,-2368.659014,7201.297681
69842.163056,-1998.556043,-2664.741391,3983.696590
69842.163367,-5995.668130,-3330.926739,13406.671215
69842.163678,-15322.262999,-4441.235652,20531.359346
69842.163989,-12509.480420,-10362.883188,16164.615008
69842.164300,2886.803174,-12287.418637,5515.887586
69842.164611,10140.821405,-7179.997637,-2145.067394
69842.164922,5773.606348,2960.823768,5056.230287
69842.165232,-5699.585753,3627.009116,15704.957709
69842.165543,-12435.459826,-2590.720797,17620.196454
69842.165854,-5551.544565,-2516.700203,11108.384721
69842.166165,-518.144159,-3108.864956,5822.325785
69842.166476,-8364.327145,-2886.803174,8273.831378
69842.166787,-5699.585753,2220.617826,14709.033562
69842.167098,-1332.370696,296.082377,13483.280765
69842.167409,-592.164754,-7550.100608,5822.325785
69842.167720,5107.421000,-9844.739029,2911.162892
69842.168031,1628.453072,-3108.864956,4903.011187
69842.168342,-3627.009116,3775.050304,13100.233016
69842.168653,-6735.874072,1406.391290,15015.471761
69842.168964,-7402.059420,-3330.926739,11338.213370
69842.169275,-3849.070898,-5403.503377,10035.851024
69842.169586,-4885.359217,-6883.915261,10112.460574
69842.169896,-5329.482782,-3256.906145,11874.480219
69842.170207,2146.597232,74.020594,6588.421283
69842.170518,5403.503377,2146.597232,4903.011187
69842.170829,-3627.009116,-962.267725,10495.508323
69842.171140,-10288.862594,-3256.906145,16394.443657
69842.171451,-12065.356855,-1850.514855,16164.615008
69842.171762,-6735.874072,-4293.194464,11261.603821
69842.172073,0.000000,-7772.162391,7124.688131
69842.172384,-4367.215058,-6587.832884,6818.249932
69842.172695,-5551.544565,-4145.153275,15015.471761
69842.173006,-4737.318029,-4885.359217,15015.471761
69842.173317,-222.061783,-3997.112087,6741.640382
69842.173628,5921.647536,-3108.864956,2681.334243
69842.173939,74.020594,-2368.659014,5669.106685
69842.174250,-10658.965565,-1480.411884,16700.881856
69842.174560,-12953.603985,-1258.350101,19458.825649
69842.174871,-4589.276840,-962.267725,12563.966167
69842.175182,962.267725,-4515.256246,4903.011187
69842.175493,3034.844362,-5107.421000,5515.887586
69842.175804,-1850.514855,-2442.679609,10035.851024
69842.176115,-2442.679609,-2368.659014,12180.918418
69842.176426,1776.494261,-4071.132681,10955.165621
69842.176737,-592.164754,-4219.173869,4903.011187
69842.177048,-1258.350101,-1184.329507,7814.174080
69842.177359,-5329.482782,-3330.926739,14862.252661
69842.177670,-13841.851115,-7994.224174,16547.662757
69842.177981,-7624.121203,-6365.771101,12793.794817
69842.178292,4219.173869,-2886.803174,5592.497135
69842.178603,1480.411884,-2886.803174,6435.202183
69842.178914,-5773.606348,-4885.359217,11261.603821
69842.179225,-6365.771101,-3034.844362,14402.595362
69842.179535,-2664.741391,1776.494261,11644.651570
69842.179846,1998.556043,3627.009116,6971.469032
69842.180157,-3182.885551,-3330.926739,9576.193725
69842.180468,-12583.501014,-8660.409521,14785.643111
69842.180779,-3034.844362,-4293.194464,13636.499864
69842.181090,4367.215058,-1628.453072,6128.763984
69842.181401,3182.885551,-4145.153275,5515.887586
69842.181712,222.061783,-6217.729913,9576.193725
69842.182023,-4145.153275,-2960.823768,11491.432470
69842.182334,-3849.070898,-1554.432478,11721.261119
69842.182645,-2368.659014,-1332.370696,9039.926876
69842.182956,-3478.967927,-962.267725,10265.679673
69842.183267,-8882.471304,-3775.050304,14709.033562
69842.183578,-8882.471304,-7105.977043,14632.424012
69842.183889,-1554.432478,-5033.400406,8044.002729
69842.184199,5551.544565,-1110.308913,3907.087040
69842.184510,2072.576638,0.000000,7814.174080
69842.184821,-5033.400406,370.102971,13176.842566
69842.185132,-4737.318029,-518.144159,13866.328514
69842.185443,-3552.988522,-3627.009116,9193.145976
69842.185754,-3034.844362,-4515.256246,7431.126331
69842.186065,-4441.235652,-2368.659014,10878.556072
69842.186376,-8808.450710,-2368.659014,16011.395908
69842.186687,-7772.162391,-4219.173869,15092.081311
69842.186998,962.267725,-5181.441594,6971.469032
69842.187309,4737.318029,-4959.379811,3370.820191
69842.187620,592.164754,-1702.473667,8044.002729
69842.187931,-3330.926739,1776.494261,13483.280765
69842.188242,-5329.482782,0.000000,13789.718964
69842.188553,-4737.318029,-4589.276840,10418.898773
69842.188863,-2072.576638,-6365.771101,8733.488677
69842.189174,-3404.947333,-6957.935855,9269.755526
69842.189485,-7476.080014,-7624.121203,11797.870669
69842.189796,-4589.276840,-4885.359217,11644.651570
69842.190107,-1406.391290,-1184.329507,9422.974625
69842.190418,-740.205942,-1036.288319,8733.488677
69842.190729,-4145.153275,-1924.535449,10035.851024
69842.191040,-5329.482782,-814.226536,11491.432470
69842.191351,-4515.256246,-592.164754,11568.042020
69842.191662,-2812.782580,-3108.864956,10342.289223
69842.191973,-2368.659014,-4589.276840,9652.803275
69842.192284,-1924.535449,-3997.112087,8350.440928
69842.192595,-962.267725,-4145.153275,9959.241474
69842.192906,-2738.761985,-3034.844362,9499.584175
69842.193217,-3108.864956,-3108.864956,9806.022374
69842.193527,-3701.029710,-3627.009116,10495.508323
69842.193838,-6809.894666,-4293.194464,11797.870669
69842.194149,-7846.182985,-4885.359217,12104.308868
69842.194460,-6661.853478,-4737.318029,11491.432470
69842.194771,-3330.926739,-4811.338623,10265.679673
69842.195082,-1554.432478,-4145.153275,7967.393179
69842.195393,-2738.761985,-4145.153275,9652.803275
69842.195704,-5477.523971,-2886.803174,11031.775171
69842.196015,-3256.906145,592.164754,11108.384721
69842.196326,-1110.308913,1184.329507,9729.412825
69842.196637,-3478.967927,-2368.659014,9806.022374
69842.196948,-5181.441594,-3701.029710,11031.775171
69842.197259,-4367.215058,-1924.535449,11797.870669
69842.197570,-2146.597232,-2812.782580,11031.775171
69842.197881,-370.102971,-4293.194464,8044.002729
69842.198191,666.185348,-2442.679609,7967.393179
69842.198502,-518.144159,-222.061783,9959.241474
69842.198813,-3108.864956,-222.061783,11644.651570
69842.199124,-2886.803174,-148.041188,12180.918418
69842.199435,-1258.350101,-222.061783,10035.851024
69842.199746,-962.267725,-666.185348,9576.193725
69842.200057,-2664.741391,-1480.411884,11031.775171
69842.200368,-3256.906145,-1850.514855,12257.527968
69842.200679,-1850.514855,-1332.370696,10342.289223
69842.200990,888.247130,-962.267725,8963.317327
69842.201301,592.164754,-814.226536,7890.783629
69842.201612,-2368.659014,-740.205942,10112.460574
69842.201923,-4071.132681,-444.123565,12487.356617
69842.202234,-3256.906145,-592.164754,12563.966167
69842.202545,-1776.494261,-2146.597232,9959.241474
69842.202855,-740.205942,-3404.947333,8580.269578
69842.203166,-1332.370696,-4589.276840,9959.241474
69842.203477,-3627.009116,-4589.276840,11951.089769
69842.203788,-1258.350101,-3182.885551,10725.336972
69842.204099,2590.720797,-666.185348,9039.926876
69842.204410,2960.823768,-444.123565,8197.221829
69842.204721,370.102971,-296.082377,9499.584175
69842.205032,-148.041188,-222.061783,10572.117872
69842.205343,-1628.453072,592.164754,12027.699319
69842.205654,1480.411884,-222.061783,10112.460574
69842.205965,74.020594,-1258.350101,9422.974625
69842.206276,-2220.617826,-1702.473667,10878.556072
69842.206587,-592.164754,-1332.370696,11491.432470
69842.206897,666.185348,0.000000,10112.460574
69842.207208,1702.473667,888.247130,9269.755526
69842.207519,1628.453072,74.020594,10648.727422
69842.207830,-370.102971,-1702.473667,11108.384721
69842.208141,-296.082377,-518.144159,10035.851024
69842.208452,3182.885551,74.020594,9116.536426
69842.208763,1998.556043,-370.102971,8656.879127
69842.209074,-1628.453072,-1702.473667,10342.289223
69842.209385,-2072.576638,74.020594,12257.527968
69842.209696,-1406.391290,666.185348,11491.432470
69842.210007,-592.164754,740.205942,11031.775171
69842.210317,888.247130,2072.576638,9806.022374
69842.210628,1110.308913,2664.741391,10112.460574
69842.210939,-592.164754,0.000000,11031.775171
69842.211250,74.020594,-1332.370696,10495.508323
69842.211561,2368.659014,-2294.638420,8886.707777
69842.211872,2516.700203,-2220.617826,8580.269578
69842.212183,0.000000,-518.144159,9882.631924
69842.212494,74.020594,1480.411884,11261.603821
69842.212805,-296.082377,-370.102971,11108.384721
69842.213116,-1110.308913,-1998.556043,10035.851024
69842.213426,1258.350101,1628.453072,8503.660028
69842.213737,2220.617826,2442.679609,9729.412825
69842.214048,-1554.432478,814.226536,11184.994271
69842.214359,-1480.411884,-74.020594,10418.898773
69842.214670,148.041188,814.226536,9576.193725
69842.214981,148.041188,74.020594,9346.365076
69842.215292,-666.185348,222.061783,10572.117872
69842.215603,-1332.370696,1702.473667,10572.117872
69842.215914,-518.144159,370.102971,11031.775171
69842.216225,666.185348,-1554.432478,9959.241474
69842.216535,814.226536,-888.247130,8963.317327
69842.216846,0.000000,-370.102971,10035.851024
69842.217157,-1258.350101,-296.082377,11108.384721
69842.217468,-740.205942,592.164754,11184.994271
69842.217779,148.041188,592.164754,9576.193725
69842.218090,-1628.453072,-1258.350101,10495.508323
69842.218401,-1924.535449,74.020594,11414.822920
69842.218712,-1036.288319,1702.473667,11108.384721
69842.219023,-740.205942,1036.288319,10648.727422
69842.219334,222.061783,-296.082377,9499.584175
69842.219645,1480.411884,-74.020594,9729.412825
69842.219955,-518.144159,-370.102971,10342.289223
69842.220266,-148.041188,-666.185348,10648.727422
69842.220577,518.144159,-518.144159,10725.336972
69842.220888,888.247130,-666.185348,9422.974625
69842.221199,222.061783,-1480.411884,9806.022374
69842.221510,0.000000,-962.267725,9806.022374
69842.221821,-296.082377,296.082377,10725.336972
69842.222132,-888.247130,0.000000,10342.289223
69842.222443,0.000000,222.061783,9882.631924
69842.222754,518.144159,370.102971,9499.584175
69842.223064,-222.061783,74.020594,10265.679673
69842.223375,-444.123565,0.000000,10801.946522
69842.223686,444.123565,222.061783,10342.289223
69842.223997,1184.329507,74.020594,9652.803275
69842.224308,296.082377,-666.185348,9652.803275
69842.224619,0.000000,-592.164754,10418.898773
69842.224930,-222.061783,1110.308913,11108.384721
69842.225241,-222.061783,592.164754,10572.117872
69842.225552,0.000000,-370.102971,10265.679673
69842.225863,518.144159,-222.061783,9806.022374
69842.226173,0.000000,370.102971,10342.289223
69842.226484,-1332.370696,888.247130,10955.165621
69842.226795,-444.123565,592.164754,11644.651570
69842.227106,370.102971,592.164754,9116.536426
69842.227417,592.164754,0.000000,9499.584175
69842.227728,0.000000,-222.061783,10189.070123
69842.228039,-592.164754,666.185348,11108.384721
69842.228350,-518.144159,370.102971,11108.384721
69842.228661,-296.082377,0.000000,10572.117872
69842.228972,0.000000,-592.164754,9959.241474
69842.229282,-666.185348,-962.267725,11338.213370
69842.229593,-444.123565,0.000000,10495.508323
69842.229904,0.000000,296.082377,10342.289223
