#time,accel_x,accel_y,accel_z
69609.542227,0.000000,0.000000,10112.460574
69609.542538,0.000000,444.123565,10418.898773
69609.542849,296.082377,0.000000,11261.603821
69609.543160,0.000000,74.020594,10878.556072
69609.543471,74.020594,-222.061783,10112.460574
69609.543782,74.020594,0.000000,10112.460574
69609.544093,370.102971,0.000000,10265.679673
69609.544404,74.020594,148.041188,10189.070123
69609.544715,74.020594,0.000000,10189.070123
69609.545026,0.000000,148.041188,10265.679673
69609.545337,148.041188,0.000000,10495.508323
69609.545648,0.000000,0.000000,10342.289223
69609.545959,0.000000,0.000000,10495.508323
69609.546270,0.000000,0.000000,10648.727422
69609.546581,0.000000,-296.082377,10265.679673
69609.546892,222.061783,592.164754,10342.289223
69609.547203,592.164754,222.061783,10035.851024
69609.547514,0.000000,0.000000,9806.022374
69609.547825,222.061783,0.000000,10112.460574
69609.548136,0.000000,296.082377,10418.898773
69609.548447,148.041188,0.000000,10418.898773
69609.548758,74.020594,-148.041188,9959.241474
69609.549069,148.041188,0.000000,10035.851024
69609.549380,0.000000,-148.041188,10265.679673
69609.549692,-296.082377,0.000000,11108.384721
69609.550003,-74.020594,-296.082377,10495.508323
69609.550314,-148.041188,0.000000,10418.898773
69609.550625,0.000000,-148.041188,10418.898773
69609.550936,148.041188,0.000000,10418.898773
69609.551247,148.041188,0.000000,10342.289223
69609.551558,148.041188,0.000000,10035.851024
69609.551869,148.041188,0.000000,10112.460574
69609.552180,148.041188,0.000000,10342.289223
69609.552491,0.000000,0.000000,10572.117872
69609.552802,148.041188,222.061783,10725.336972
69609.553113,0.000000,0.000000,10648.727422
69609.553424,74.020594,-222.061783,10572.117872
69609.553735,0.000000,0.000000,10265.679673
69609.554046,0.000000,0.000000,10572.117872
69609.554357,0.000000,0.000000,10342.289223
69609.554668,74.020594,0.000000,10265.679673
69609.554979,148.041188,148.041188,10342.289223
69609.555290,148.041188,0.000000,10342.289223
69609.555601,0.000000,-370.102971,10265.679673
69609.555912,0.000000,74.020594,10495.508323
69609.556223,296.082377,-444.123565,9959.241474
69609.556534,0.000000,-222.061783,10418.898773
69609.556845,-296.082377,0.000000,10265.679673
69609.557156,0.000000,74.020594,10495.508323
69609.557467,0.000000,-222.061783,10189.070123
69609.557778,0.000000,-148.041188,10342.289223
69609.558090,222.061783,0.000000,10725.336972
69609.558401,148.041188,518.144159,9882.631924
69609.558712,222.061783,74.020594,9882.631924
69609.559023,0.000000,-74.020594,10955.165621
69609.559334,74.020594,0.000000,10495.508323
69609.559645,222.061783,0.000000,10342.289223
69609.559956,222.061783,0.000000,10265.679673
69609.560267,0.000000,0.000000,10418.898773
69609.560578,0.000000,0.000000,10495.508323
69609.560889,296.082377,0.000000,10801.946522
69609.561200,296.082377,0.000000,10112.460574
69609.561511,0.000000,0.000000,10189.070123
69609.561822,444.123565,0.000000,10725.336972
69609.562133,74.020594,0.000000,10342.289223
69609.562444,74.020594,-370.102971,10112.460574
69609.562755,0.000000,148.041188,10418.898773
69609.563066,74.020594,0.000000,10265.679673
69609.563377,-148.041188,0.000000,10189.070123
69609.563688,0.000000,0.000000,10265.679673
69609.563999,0.000000,0.000000,10418.898773
69609.564310,0.000000,0.000000,10495.508323
69609.564621,0.000000,0.000000,10265.679673
69609.564932,74.020594,74.020594,10495.508323
69609.565243,74.020594,222.061783,10418.898773
69609.565554,0.000000,296.082377,9499.584175
69609.565865,444.123565,222.061783,10878.556072
69609.566176,0.000000,0.000000,10572.117872
69609.566487,0.000000,-148.041188,10495.508323
69609.566799,74.020594,0.000000,10572.117872
69609.567110,-148.041188,0.000000,10112.460574
69609.567421,0.000000,0.000000,10112.460574
69609.567732,148.041188,0.000000,10418.898773
69609.568043,-592.164754,444.123565,10725.336972
69609.568354,74.020594,222.061783,10648.727422
69609.568665,0.000000,518.144159,10418.898773
69609.568976,-296.082377,-222.061783,10495.508323
69609.569287,0.000000,0.000000,10418.898773
69609.569598,0.000000,74.020594,10265.679673
69609.569909,74.020594,-222.061783,10342.289223
69609.570220,0.000000,0.000000,10495.508323
69609.570531,0.000000,-148.041188,10342.289223
69609.570842,148.041188,74.020594,10418.898773
69609.571153,-666.185348,0.000000,10418.898773
69609.571464,0.000000,666.185348,10189.070123
69609.571775,-296.082377,0.000000,10418.898773
69609.572086,296.082377,0.000000,10112.460574
69609.572397,370.102971,74.020594,10035.851024
69609.572708,0.000000,-222.061783,10342.289223
69609.573019,74.020594,0.000000,10342.289223
69609.573330,0.000000,0.000000,10265.679673
69609.573641,74.020594,-222.061783,10342.289223
69609.573952,296.082377,-444.123565,10189.070123
69609.574263,74.020594,0.000000,10342.289223
69609.574574,0.000000,0.000000,9882.631924
69609.574885,74.020594,296.082377,10265.679673
69609.575197,444.123565,74.020594,10112.460574
69609.575508,74.020594,-222.061783,10035.851024
69609.575819,74.020594,0.000000,10342.289223
69609.576130,0.000000,0.000000,10418.898773
69609.576441,74.020594,0.000000,10189.070123
69609.576752,0.000000,0.000000,10572.117872
69609.577063,592.164754,0.000000,10265.679673
69609.577374,-518.144159,0.000000,10495.508323
69609.577685,-148.041188,0.000000,9959.241474
69609.577996,0.000000,148.041188,10265.679673
69609.578307,74.020594,-222.061783,10189.070123
69609.578618,74.020594,0.000000,10495.508323
69609.578929,0.000000,0.000000,10112.460574
69609.579240,222.061783,-148.041188,10342.289223
69609.579551,-296.082377,148.041188,10418.898773
69609.579862,0.000000,0.000000,10265.679673
69609.580173,0.000000,148.041188,10342.289223
69609.580484,0.000000,0.000000,10342.289223
69609.580795,0.000000,74.020594,10725.336972
69609.581106,222.061783,-74.020594,10112.460574
69609.581417,148.041188,0.000000,9959.241474
69609.581728,0.000000,-518.144159,10495.508323
69609.582039,0.000000,0.000000,10265.679673
69609.582350,0.000000,296.082377,10265.679673
69609.582661,0.000000,0.000000,10035.851024
69609.582972,74.020594,74.020594,10035.851024
69609.583283,148.041188,-222.061783,10112.460574
69609.583594,0.000000,0.000000,10265.679673
69609.583906,74.020594,0.000000,10495.508323
69609.584217,370.102971,296.082377,10342.289223
69609.584528,0.000000,296.082377,10112.460574
69609.584839,0.000000,-148.041188,10648.727422
69609.585150,296.082377,74.020594,9652.803275
69609.585461,74.020594,0.000000,10342.289223
69609.585772,0.000000,0.000000,10418.898773
69609.586083,0.000000,0.000000,10189.070123
69609.586394,0.000000,-148.041188,10495.508323
69609.586705,370.102971,74.020594,10495.508323
69609.587016,296.082377,-296.082377,10342.289223
69609.587327,0.000000,296.082377,9729.412825
69609.587638,148.041188,0.000000,10342.289223
69609.587949,0.000000,592.164754,10572.117872
69609.588260,222.061783,0.000000,10418.898773
69609.588571,0.000000,-296.082377,10035.851024
69609.588882,0.000000,0.000000,10342.289223
69609.589193,74.020594,0.000000,10418.898773
69609.589504,296.082377,-666.185348,10035.851024
69609.589815,0.000000,74.020594,10572.117872
69609.590126,-370.102971,296.082377,10189.070123
69609.590437,222.061783,74.020594,10418.898773
69609.590748,0.000000,0.000000,10725.336972
69609.591059,296.082377,74.020594,10265.679673
69609.591370,0.000000,0.000000,10189.070123
69609.591681,0.000000,0.000000,10495.508323
69609.591992,0.000000,0.000000,10265.679673
69609.592303,0.000000,74.020594,9882.631924
69609.592615,222.061783,-296.082377,10418.898773
69609.592926,0.000000,222.061783,9959.241474
69609.593237,-370.102971,0.000000,10342.289223
69609.593548,0.000000,0.000000,10189.070123
69609.593859,148.041188,148.041188,9959.241474
69609.594170,0.000000,0.000000,10418.898773
69609.594481,0.000000,0.000000,10418.898773
69609.594792,0.000000,74.020594,10648.727422
69609.595103,0.000000,-222.061783,9499.584175
69609.595414,0.000000,0.000000,10418.898773
69609.595725,0.000000,-222.061783,10189.070123
69609.596036,0.000000,0.000000,10265.679673
69609.596347,0.000000,0.000000,10572.117872
69609.596658,518.144159,222.061783,9806.022374
69609.596969,296.082377,0.000000,10648.727422
69609.597280,0.000000,-296.082377,10112.460574
69609.597591,0.000000,0.000000,10342.289223
69609.597902,148.041188,222.061783,10878.556072
69609.598213,148.041188,0.000000,10418.898773
69609.598524,-148.041188,0.000000,10418.898773
69609.598835,74.020594,0.000000,10189.070123
69609.599146,0.000000,0.000000,10342.289223
69609.599457,0.000000,222.061783,10725.336972
69609.599768,-296.082377,518.144159,10035.851024
69609.600079,296.082377,222.061783,9806.022374
69609.600390,0.000000,-222.061783,10342.289223
69609.600701,74.020594,0.000000,10112.460574
69609.601013,296.082377,148.041188,10265.679673
69609.601324,74.020594,0.000000,10112.460574
69609.601635,74.020594,-148.041188,10035.851024
69609.601946,0.000000,0.000000,10112.460574
69609.602257,592.164754,-370.102971,10418.898773
69609.602568,0.000000,296.082377,10265.679673
69609.602879,222.061783,0.000000,10418.898773
69609.603190,-592.164754,0.000000,10955.165621
69609.603502,-74.020594,0.000000,10572.117872
69609.603813,0.000000,0.000000,10342.289223
69609.604124,148.041188,0.000000,10418.898773
69609.604435,148.041188,-222.061783,10342.289223
69609.604746,74.020594,0.000000,10418.898773
69609.605057,296.082377,148.041188,9652.803275
69609.605368,-370.102971,74.020594,10035.851024
69609.605679,296.082377,296.082377,9882.631924
69609.605990,666.185348,-740.205942,10878.556072
69609.606302,0.000000,0.000000,10418.898773
69609.606613,296.082377,0.000000,10418.898773
69609.606924,74.020594,-148.041188,10495.508323
69609.607235,-370.102971,0.000000,10495.508323
69609.607546,74.020594,74.020594,10265.679673
69609.607857,148.041188,444.123565,10265.679673
69609.608168,0.000000,-74.020594,10495.508323
69609.608479,296.082377,222.061783,10572.117872
69609.608790,74.020594,0.000000,10648.727422
69609.609102,0.000000,0.000000,10265.679673
69609.609413,222.061783,0.000000,10342.289223
69609.609724,74.020594,0.000000,10035.851024
69609.610035,74.020594,0.000000,10189.070123
69609.610346,0.000000,0.000000,10265.679673
69609.610657,0.000000,-222.061783,10725.336972
69609.610968,74.020594,0.000000,10112.460574
69609.611279,148.041188,0.000000,10342.289223
69609.611590,444.123565,-296.082377,10572.117872
69609.611902,-222.061783,-296.082377,10418.898773
69609.612213,-592.164754,444.123565,10418.898773
69609.612524,148.041188,148.041188,10265.679673
69609.612835,74.020594,0.000000,10265.679673
69609.613146,-296.082377,-222.061783,10265.679673
69609.613457,0.000000,-222.061783,10265.679673
69609.613768,0.000000,148.041188,9959.241474
69609.614079,148.041188,148.041188,10342.289223
69609.614390,0.000000,-148.041188,10112.460574
69609.614702,0.000000,-222.061783,10035.851024
69609.615013,222.061783,0.000000,10878.556072
69609.615324,148.041188,74.020594,10342.289223
69609.615635,0.000000,-74.020594,9806.022374
69609.615946,-222.061783,0.000000,10265.679673
69609.616257,148.041188,0.000000,10265.679673
69609.616568,148.041188,0.000000,10495.508323
69609.616879,-148.041188,0.000000,10572.117872
69609.617190,74.020594,148.041188,10265.679673
69609.617502,296.082377,74.020594,10265.679673
69609.617813,222.061783,-444.123565,10342.289223
69609.618124,-592.164754,0.000000,10572.117872
69609.618435,222.061783,74.020594,11338.213370
69609.618746,370.102971,-74.020594,10189.070123
69609.619057,148.041188,74.020594,10265.679673
69609.619368,0.000000,222.061783,10418.898773
69609.619679,0.000000,-148.041188,10418.898773
69609.619990,-74.020594,74.020594,10572.117872
69609.620302,222.061783,0.000000,10265.679673
69609.620613,74.020594,0.000000,10265.679673
69609.620924,-74.020594,-592.164754,10112.460574
69609.621235,222.061783,74.020594,10265.679673
69609.621546,148.041188,-74.020594,10955.165621
69609.621857,0.000000,0.000000,10265.679673
69609.622168,0.000000,0.000000,10265.679673
69609.622479,0.000000,0.000000,10418.898773
69609.622790,0.000000,-370.102971,10495.508323
69609.623102,222.061783,0.000000,10342.289223
69609.623413,148.041188,74.020594,10112.460574
69609.623724,-370.102971,444.123565,11031.775171
69609.624035,-148.041188,-592.164754,9652.803275
69609.624346,370.102971,0.000000,10801.946522
69609.624657,74.020594,0.000000,10189.070123
69609.624968,-148.041188,518.144159,10342.289223
69609.625279,0.000000,0.000000,10342.289223
69609.625590,-222.061783,0.000000,10418.898773
69609.625901,74.020594,0.000000,10265.679673
69609.626213,0.000000,148.041188,10418.898773
69609.626524,0.000000,518.144159,10495.508323
69609.626835,-296.082377,-370.102971,10418.898773
69609.627146,518.144159,592.164754,9882.631924
69609.627457,222.061783,-148.041188,9576.193725
69609.627768,148.041188,0.000000,10801.946522
69609.628079,0.000000,0.000000,10265.679673
69609.628390,0.000000,0.000000,10572.117872
69609.628701,0.000000,0.000000,10418.898773
69609.629013,0.000000,0.000000,10189.070123
69609.629324,296.082377,0.000000,10189.070123
69609.629635,74.020594,0.000000,10418.898773
69609.629946,0.000000,0.000000,10189.070123
69609.630257,0.000000,0.000000,10265.679673
69609.630568,0.000000,222.061783,10189.070123
69609.630879,222.061783,-296.082377,10112.460574
69609.631190,444.123565,0.000000,10725.336972
69609.631501,-148.041188,-222.061783,10265.679673
69609.631813,0.000000,0.000000,10495.508323
69609.632124,74.020594,0.000000,10265.679673
69609.632435,0.000000,0.000000,10342.289223
69609.632746,0.000000,0.000000,10265.679673
69609.633057,0.000000,74.020594,10342.289223
69609.633368,-222.061783,0.000000,10418.898773
69609.633679,74.020594,0.000000,10035.851024
69609.633990,592.164754,0.000000,10112.460574
69609.634301,518.144159,-370.102971,10418.898773
69609.634613,0.000000,222.061783,10265.679673
69609.634924,444.123565,-296.082377,10648.727422
69609.635235,0.000000,-148.041188,10189.070123
69609.635546,148.041188,0.000000,10265.679673
69609.635857,-148.041188,74.020594,10342.289223
69609.636168,0.000000,0.000000,10265.679673
69609.636479,-296.082377,-74.020594,10495.508323
69609.636790,296.082377,0.000000,10265.679673
69609.637101,0.000000,0.000000,10342.289223
69609.637413,296.082377,0.000000,10035.851024
69609.637724,222.061783,296.082377,9806.022374
69609.638035,-148.041188,74.020594,10725.336972
69609.638346,0.000000,0.000000,10342.289223
69609.638657,0.000000,-370.102971,10035.851024
69609.638968,222.061783,0.000000,10418.898773
69609.639279,-370.102971,0.000000,9422.974625
69609.639590,-592.164754,0.000000,10418.898773
69609.639901,-444.123565,-444.123565,10572.117872
69609.640213,74.020594,-370.102971,10572.117872
69609.640524,74.020594,0.000000,10265.679673
69609.640835,0.000000,0.000000,10112.460574
69609.641146,-222.061783,0.000000,10495.508323
69609.641457,0.000000,0.000000,10495.508323
69609.641768,370.102971,148.041188,10189.070123
69609.642079,74.020594,-148.041188,10725.336972
69609.642390,148.041188,370.102971,10648.727422
69609.642701,-518.144159,592.164754,9882.631924
69609.643013,-296.082377,370.102971,9652.803275
69609.643324,74.020594,0.000000,10418.898773
69609.643635,0.000000,0.000000,10342.289223
69609.643946,0.000000,0.000000,10495.508323
69609.644257,74.020594,74.020594,10495.508323
69609.644568,0.000000,0.000000,10189.070123
69609.644879,0.000000,-814.226536,10495.508323
69609.645190,222.061783,0.000000,10418.898773
69609.645501,-74.020594,296.082377,9422.974625
69609.645813,74.020594,0.000000,10418.898773
69609.646124,148.041188,0.000000,10189.070123
69609.646435,-148.041188,148.041188,10418.898773
69609.646746,0.000000,-222.061783,10342.289223
69609.647057,0.000000,0.000000,10265.679673
69609.647368,-222.061783,74.020594,10418.898773
69609.647679,148.041188,0.000000,10572.117872
69609.647990,222.061783,0.000000,10189.070123
69609.648301,0.000000,-148.041188,10265.679673
69609.648613,0.000000,0.000000,10418.898773
69609.648924,0.000000,148.041188,10572.117872
69609.649235,592.164754,-74.020594,10112.460574
69609.649546,296.082377,0.000000,10265.679673
69609.649857,0.000000,-148.041188,10572.117872
69609.650168,74.020594,0.000000,10418.898773
69609.650479,148.041188,370.102971,10265.679673
69609.650790,-148.041188,0.000000,9959.241474
69609.651101,74.020594,0.000000,10265.679673
69609.651413,-148.041188,0.000000,10265.679673
69609.651724,-222.061783,0.000000,10342.289223
69609.652035,-296.082377,148.041188,9269.755526
69609.652346,148.041188,0.000000,9576.193725
69609.652657,0.000000,-296.082377,10342.289223
69609.652968,148.041188,-222.061783,10418.898773
69609.653279,222.061783,0.000000,10495.508323
69609.653590,-222.061783,0.000000,10572.117872
69609.653901,296.082377,-222.061783,10342.289223
69609.654213,0.000000,0.000000,10418.898773
69609.654524,0.000000,0.000000,10112.460574
69609.654835,0.000000,0.000000,11184.994271
69609.655146,0.000000,74.020594,10725.336972
69609.655457,148.041188,-666.185348,10572.117872
69609.655768,74.020594,222.061783,10189.070123
69609.656079,0.000000,-148.041188,10418.898773
69609.656390,148.041188,0.000000,10418.898773
69609.656701,222.061783,74.020594,10265.679673
69609.657013,148.041188,-148.041188,10035.851024
69609.657324,0.000000,0.000000,10495.508323
69609.657635,0.000000,-222.061783,9882.631924
69609.657946,148.041188,296.082377,10648.727422
69609.658257,-148.041188,518.144159,9806.022374
69609.658568,-370.102971,222.061783,10035.851024
69609.658879,0.000000,0.000000,10112.460574
69609.659190,222.061783,74.020594,9959.241474
69609.659501,74.020594,0.000000,10342.289223
69609.659813,74.020594,74.020594,10035.851024
69609.660124,0.000000,0.000000,10418.898773
69609.660435,148.041188,0.000000,10648.727422
69609.660746,-222.061783,148.041188,10265.679673
69609.661057,-296.082377,444.123565,10418.898773
69609.661368,74.020594,-518.144159,9806.022374
69609.661679,222.061783,-222.061783,10265.679673
69609.661990,222.061783,222.061783,10572.117872
69609.662301,0.000000,0.000000,10495.508323
69609.662613,148.041188,0.000000,10342.289223
69609.662924,148.041188,0.000000,10265.679673
69609.663235,74.020594,74.020594,10265.679673
69609.663546,0.000000,74.020594,10035.851024
69609.663857,74.020594,148.041188,10265.679673
69609.664168,74.020594,0.000000,10342.289223
69609.664479,0.000000,0.000000,10342.289223
69609.664790,518.144159,0.000000,10418.898773
69609.665101,74.020594,296.082377,10112.460574
69609.665413,0.000000,296.082377,9959.241474
69609.665724,-740.205942,74.020594,10112.460574
69609.666035,0.000000,0.000000,10112.460574
69609.666346,-222.061783,222.061783,10265.679673
69609.666657,74.020594,0.000000,10112.460574
69609.666968,74.020594,0.000000,10265.679673
69609.667279,74.020594,0.000000,10035.851024
69609.667590,74.020594,74.020594,10189.070123
69609.667901,0.000000,74.020594,10418.898773
69609.668213,-296.082377,0.000000,10189.070123
69609.668524,222.061783,-148.041188,10342.289223
69609.668835,296.082377,0.000000,10265.679673
69609.669146,-148.041188,0.000000,9959.241474
69609.669457,0.000000,0.000000,10495.508323
69609.669768,0.000000,0.000000,10418.898773
69609.670079,0.000000,0.000000,10265.679673
69609.670390,0.000000,0.000000,10418.898773
69609.670701,740.205942,222.061783,10112.460574
69609.671013,-296.082377,296.082377,10189.070123
69609.671324,74.020594,222.061783,10418.898773
69609.671635,74.020594,0.000000,10112.460574
69609.671946,0.000000,592.164754,10265.679673
69609.672257,148.041188,0.000000,10342.289223
69609.672568,0.000000,0.000000,10265.679673
69609.672879,-148.041188,0.000000,10342.289223
69609.673190,0.000000,0.000000,10418.898773
69609.673501,0.000000,-370.102971,10572.117872
69609.673813,-74.020594,0.000000,9729.412825
69609.674124,-296.082377,0.000000,10725.336972
69609.674435,148.041188,-222.061783,10342.289223
69609.674746,148.041188,148.041188,10418.898773
69609.675057,222.061783,0.000000,10342.289223
69609.675368,74.020594,0.000000,10112.460574
69609.675679,74.020594,74.020594,10189.070123
69609.675990,74.020594,74.020594,10265.679673
69609.676301,296.082377,74.020594,10495.508323
69609.676613,74.020594,0.000000,10955.165621
69609.676924,148.041188,0.000000,10725.336972
69609.677235,74.020594,-148.041188,10265.679673
69609.677546,0.000000,0.000000,10495.508323
69609.677857,0.000000,0.000000,10265.679673
69609.678168,0.000000,0.000000,10418.898773
69609.678479,74.020594,0.000000,10648.727422
69609.678790,148.041188,-148.041188,10265.679673
69609.679101,148.041188,0.000000,10035.851024
69609.679413,222.061783,-370.102971,10342.289223
69609.679724,0.000000,0.000000,10418.898773
69609.680035,0.000000,148.041188,10189.070123
69609.680346,0.000000,222.061783,10265.679673
69609.680657,518.144159,-222.061783,10342.289223
69609.680968,148.041188,0.000000,9882.631924
69609.681279,518.144159,-148.041188,11031.775171
69609.681590,0.000000,0.000000,10572.117872
69609.681901,592.164754,0.000000,10265.679673
69609.682213,148.041188,0.000000,10112.460574
69609.682524,0.000000,-370.102971,10265.679673
69609.682835,0.000000,0.000000,10342.289223
69609.683146,74.020594,74.020594,10265.679673
69609.683457,74.020594,222.061783,10265.679673
69609.683768,-444.123565,296.082377,10112.460574
69609.684079,296.082377,-518.144159,10495.508323
69609.684390,74.020594,0.000000,10418.898773
69609.684701,296.082377,222.061783,10418.898773
69609.685013,0.000000,0.000000,10265.679673
69609.685324,0.000000,-148.041188,10265.679673
69609.685635,148.041188,74.020594,10265.679673
69609.685946,222.061783,0.000000,10112.460574
69609.686257,296.082377,222.061783,10418.898773
69609.686568,-740.205942,0.000000,9806.022374
69609.686879,-222.061783,0.000000,10035.851024
69609.687190,0.000000,296.082377,10265.679673
69609.687501,148.041188,0.000000,11184.994271
69609.687813,0.000000,0.000000,10265.679673
69609.688124,0.000000,0.000000,10342.289223
69609.688435,0.000000,0.000000,10648.727422
69609.688746,0.000000,0.000000,10495.508323
69609.689057,0.000000,370.102971,9882.631924
69609.689368,222.061783,222.061783,10342.289223
69609.689679,296.082377,74.020594,11031.775171
69609.689990,0.000000,148.041188,10725.336972
69609.690301,0.000000,0.000000,10189.070123
69609.690613,0.000000,0.000000,10112.460574
69609.690924,0.000000,0.000000,10265.679673
69609.691235,0.000000,0.000000,10418.898773
69609.691546,-296.082377,74.020594,10495.508323
69609.691857,0.000000,370.102971,10572.117872
69609.692168,370.102971,296.082377,10265.679673
69609.692479,0.000000,222.061783,9576.193725
69609.692790,222.061783,222.061783,10418.898773
69609.693101,74.020594,0.000000,10572.117872
69609.693413,222.061783,0.000000,10648.727422
69609.693724,148.041188,74.020594,10189.070123
69609.694035,222.061783,-222.061783,10342.289223
69609.694346,0.000000,0.000000,10265.679673
69609.694657,74.020594,222.061783,10112.460574
69609.694968,0.000000,-444.123565,10955.165621
69609.695279,0.000000,-296.082377,10725.336972
69609.695590,0.000000,-148.041188,10265.679673
69609.695901,0.000000,0.000000,10495.508323
69609.696212,148.041188,74.020594,10342.289223
69609.696524,74.020594,148.041188,10265.679673
69609.696835,0.000000,0.000000,10189.070123
69609.697146,0.000000,0.000000,10265.679673
69609.697457,74.020594,222.061783,10265.679673
69609.697768,74.020594,148.041188,10112.460574
69609.698079,148.041188,0.000000,10342.289223
69609.698390,0.000000,-148.041188,10418.898773
69609.698701,0.000000,0.000000,10265.679673
69609.699012,74.020594,222.061783,10955.165621
69609.699324,74.020594,-666.185348,11261.603821
69609.699635,0.000000,-74.020594,10265.679673
69609.699946,222.061783,74.020594,10189.070123
69609.700257,0.000000,0.000000,10878.556072
69609.700568,148.041188,148.041188,10265.679673
69609.700879,0.000000,0.000000,10189.070123
69609.701190,148.041188,0.000000,10112.460574
69609.701502,148.041188,148.041188,10265.679673
69609.701813,74.020594,888.247130,11031.775171
69609.702124,-222.061783,-296.082377,10495.508323
69609.702435,74.020594,-444.123565,10955.165621
69609.702746,222.061783,-148.041188,10265.679673
69609.703057,0.000000,0.000000,10112.460574
69609.703369,0.000000,0.000000,10572.117872
69609.703680,-148.041188,-666.185348,10725.336972
69609.703991,-148.041188,0.000000,10495.508323
69609.704302,74.020594,0.000000,10189.070123
69609.704613,0.000000,222.061783,10418.898773
69609.704924,-74.020594,148.041188,10112.460574
69609.705236,592.164754,222.061783,10418.898773
69609.705547,74.020594,0.000000,10418.898773
69609.705858,74.020594,0.000000,10189.070123
69609.706169,370.102971,0.000000,10342.289223
69609.706480,74.020594,0.000000,10265.679673
69609.706791,-148.041188,0.000000,10112.460574
69609.707103,0.000000,0.000000,10265.679673
69609.707414,-148.041188,0.000000,10725.336972
69609.707725,0.000000,-592.164754,10035.851024
69609.708036,74.020594,-296.082377,10342.289223
69609.708347,74.020594,74.020594,10342.289223
69609.708658,74.020594,0.000000,10189.070123
69609.708970,74.020594,-148.041188,10265.679673
69609.709281,0.000000,74.020594,10495.508323
69609.709592,74.020594,0.000000,10495.508323
69609.709903,74.020594,0.000000,10265.679673
69609.710214,222.061783,148.041188,10265.679673
69609.710525,-296.082377,0.000000,10265.679673
69609.710837,-222.061783,222.061783,10418.898773
69609.711148,0.000000,-74.020594,10572.117872
69609.711459,74.020594,-148.041188,10342.289223
69609.711770,0.000000,-592.164754,11338.213370
69609.712081,0.000000,0.000000,10418.898773
69609.712392,0.000000,0.000000,10112.460574
69609.712704,-296.082377,74.020594,10572.117872
69609.713015,74.020594,-148.041188,10265.679673
69609.713326,74.020594,0.000000,10495.508323
69609.713637,74.020594,222.061783,10265.679673
69609.713948,0.000000,148.041188,10189.070123
69609.714259,74.020594,0.000000,10189.070123
69609.714571,296.082377,0.000000,10572.117872
69609.714882,74.020594,296.082377,9882.631924
69609.715193,-296.082377,74.020594,10418.898773
69609.715504,148.041188,-148.041188,10725.336972
69609.715815,0.000000,-222.061783,10265.679673
69609.716126,74.020594,-148.041188,10189.070123
69609.716437,148.041188,0.000000,10342.289223
69609.716749,0.000000,-148.041188,10495.508323
69609.717060,74.020594,0.000000,10342.289223
69609.717371,148.041188,148.041188,10342.289223
69609.717682,-370.102971,222.061783,10035.851024
69609.717993,0.000000,0.000000,10572.117872
69609.718304,148.041188,296.082377,10495.508323
69609.718616,0.000000,0.000000,10342.289223
69609.718927,370.102971,0.000000,10112.460574
69609.719238,222.061783,0.000000,10189.070123
69609.719549,0.000000,0.000000,10265.679673
69609.719860,-148.041188,0.000000,10418.898773
69609.720171,0.000000,0.000000,10189.070123
69609.720483,0.000000,-74.020594,9882.631924
69609.720794,74.020594,296.082377,10342.289223
69609.721105,222.061783,-296.082377,10495.508323
69609.721416,0.000000,0.000000,10112.460574
69609.721727,518.144159,-222.061783,10265.679673
69609.722038,74.020594,0.000000,10189.070123
69609.722350,74.020594,0.000000,10265.679673
69609.722661,0.000000,148.041188,10572.117872
69609.722972,0.000000,0.000000,10418.898773
69609.723283,1184.329507,0.000000,10648.727422
69609.723594,-222.061783,74.020594,10112.460574
69609.723905,-592.164754,-296.082377,9806.022374
69609.724217,74.020594,-148.041188,10495.508323
69609.724528,0.000000,0.000000,10418.898773
69609.724839,74.020594,0.000000,10265.679673
69609.725150,222.061783,0.000000,10342.289223
69609.725461,148.041188,0.000000,10265.679673
69609.725772,-148.041188,-222.061783,10342.289223
69609.726084,0.000000,444.123565,10112.460574
69609.726395,74.020594,148.041188,9806.022374
69609.726706,0.000000,0.000000,10572.117872
69609.727017,0.000000,74.020594,10725.336972
69609.727328,0.000000,0.000000,10495.508323
69609.727639,-148.041188,0.000000,10495.508323
69609.727951,222.061783,0.000000,10112.460574
69609.728262,0.000000,0.000000,10265.679673
69609.728573,-222.061783,0.000000,10418.898773
69609.728884,-148.041188,0.000000,10801.946522
69609.729195,148.041188,-296.082377,9882.631924
69609.729506,74.020594,-222.061783,10112.460574
69609.729818,0.000000,0.000000,10189.070123
69609.730129,0.000000,0.000000,10648.727422
69609.730440,-518.144159,370.102971,9959.241474
69609.730751,-148.041188,222.061783,9806.022374
69609.731062,0.000000,0.000000,9806.022374
69609.731373,0.000000,74.020594,10342.289223
69609.731685,148.041188,370.102971,10035.851024
69609.731996,148.041188,-148.041188,10342.289223
69609.732307,0.000000,0.000000,10112.460574
69609.732618,74.020594,0.000000,9882.631924
69609.732929,0.000000,-148.041188,10265.679673
69609.733240,-370.102971,296.082377,9882.631924
69609.733552,0.000000,222.061783,10801.946522
69609.733863,0.000000,444.123565,10112.460574
69609.734174,0.000000,0.000000,9959.241474
69609.734485,74.020594,222.061783,10572.117872
69609.734796,0.000000,0.000000,10265.679673
69609.735107,0.000000,0.000000,10495.508323
69609.735419,0.000000,0.000000,10418.898773
69609.735730,74.020594,0.000000,10265.679673
69609.736041,74.020594,0.000000,10035.851024
69609.736352,0.000000,-296.082377,10035.851024
69609.736663,0.000000,0.000000,10342.289223
69609.736974,0.000000,74.020594,10112.460574
69609.737286,0.000000,-148.041188,10265.679673
69609.737597,0.000000,0.000000,10955.165621
69609.737908,0.000000,0.000000,10265.679673
69609.738219,-148.041188,148.041188,10572.117872
69609.738530,296.082377,0.000000,10342.289223
69609.738841,0.000000,0.000000,10342.289223
69609.739153,74.020594,0.000000,10572.117872
69609.739464,0.000000,296.082377,10648.727422
69609.739775,74.020594,0.000000,10725.336972
69609.740086,74.020594,0.000000,10189.070123
69609.740397,0.000000,-370.102971,11338.213370
69609.740708,0.000000,0.000000,10265.679673
69609.741019,0.000000,-222.061783,10572.117872
69609.741331,0.000000,0.000000,10342.289223
69609.741642,74.020594,0.000000,10342.289223
69609.741953,0.000000,-666.185348,10878.556072
69609.742264,-518.144159,74.020594,10112.460574
69609.742575,148.041188,0.000000,10495.508323
69609.742886,370.102971,0.000000,9959.241474
69609.743198,370.102971,-148.041188,9806.022374
69609.743509,0.000000,74.020594,10265.679673
69609.743820,0.000000,0.000000,10495.508323
69609.744131,0.000000,74.020594,10342.289223
69609.744442,0.000000,148.041188,10342.289223
69609.744753,0.000000,296.082377,10418.898773
69609.745065,0.000000,-74.020594,10265.679673
69609.745376,0.000000,0.000000,10418.898773
69609.745687,0.000000,-444.123565,9729.412825
69609.745998,74.020594,-296.082377,10265.679673
69609.746309,222.061783,-148.041188,10112.460574
69609.746620,74.020594,222.061783,10342.289223
69609.746932,74.020594,0.000000,10418.898773
69609.747243,0.000000,0.000000,10342.289223
69609.747554,518.144159,148.041188,10418.898773
69609.747865,0.000000,74.020594,10265.679673
69609.748176,74.020594,0.000000,10495.508323
69609.748487,-148.041188,-148.041188,10418.898773
69609.748799,0.000000,0.000000,10342.289223
69609.749110,74.020594,296.082377,10495.508323
69609.749421,222.061783,370.102971,10112.460574
69609.749732,-148.041188,-444.123565,10418.898773
69609.750043,0.000000,74.020594,10342.289223
69609.750354,222.061783,0.000000,10878.556072
69609.750666,0.000000,0.000000,10189.070123
69609.750977,222.061783,-148.041188,10342.289223
69609.751288,0.000000,74.020594,10265.679673
69609.751599,0.000000,0.000000,10572.117872
69609.751910,0.000000,0.000000,10265.679673
69609.752221,888.247130,-296.082377,10342.289223
69609.752533,74.020594,-296.082377,10955.165621
69609.752844,74.020594,0.000000,10342.289223
69609.753155,148.041188,0.000000,10418.898773
69609.753466,0.000000,0.000000,10189.070123
69609.753777,148.041188,0.000000,10035.851024
69609.754088,0.000000,0.000000,10342.289223
69609.754400,0.000000,0.000000,10265.679673
69609.754711,592.164754,74.020594,9652.803275
69609.755022,148.041188,0.000000,9729.412825
69609.755333,-666.185348,0.000000,10342.289223
69609.755644,0.000000,0.000000,10342.289223
69609.755955,0.000000,0.000000,10189.070123
69609.756267,148.041188,0.000000,10342.289223
69609.756578,74.020594,0.000000,9959.241474
69609.756889,222.061783,0.000000,10342.289223
69609.757200,148.041188,0.000000,10265.679673
69609.757511,-296.082377,0.000000,10418.898773
69609.757822,0.000000,-814.226536,10342.289223
69609.758134,-148.041188,0.000000,10112.460574
69609.758445,0.000000,0.000000,10035.851024
69609.758756,0.000000,0.000000,10572.117872
69609.759067,0.000000,0.000000,10265.679673
69609.759378,0.000000,148.041188,10342.289223
69609.759689,74.020594,0.000000,10342.289223
69609.760001,74.020594,74.020594,10112.460574
69609.760312,148.041188,74.020594,10725.336972
69609.760623,518.144159,222.061783,10418.898773
69609.760934,74.020594,0.000000,10342.289223
69609.761245,518.144159,-518.144159,10035.851024
69609.761556,74.020594,0.000000,10112.460574
69609.761868,0.000000,0.000000,10189.070123
69609.762179,0.000000,0.000000,10648.727422
69609.762490,0.000000,-296.082377,10418.898773
69609.762801,0.000000,0.000000,10342.289223
69609.763112,222.061783,0.000000,10035.851024
69609.763423,74.020594,-444.123565,10189.070123
69609.763734,296.082377,0.000000,10801.946522
69609.764046,444.123565,0.000000,9806.022374
69609.764357,222.061783,74.020594,10265.679673
69609.764668,0.000000,74.020594,10189.070123
69609.764979,74.020594,-148.041188,10035.851024
69609.765290,222.061783,0.000000,10495.508323
69609.765601,0.000000,-296.082377,10572.117872
69609.765913,0.000000,-222.061783,10572.117872
69609.766224,0.000000,0.000000,10265.679673
69609.766535,0.000000,0.000000,10189.070123
69609.766846,0.000000,0.000000,10418.898773
69609.767157,0.000000,0.000000,10495.508323
69609.767468,-74.020594,74.020594,9959.241474
69609.767780,-518.144159,296.082377,10495.508323
69609.768091,-222.061783,148.041188,9959.241474
69609.768402,148.041188,0.000000,10418.898773
69609.768713,74.020594,74.020594,10342.289223
69609.769024,-370.102971,148.041188,10572.117872
69609.769335,0.000000,0.000000,10189.070123
69609.769647,0.000000,0.000000,10342.289223
69609.769958,0.000000,0.000000,10265.679673
69609.770269,74.020594,0.000000,10572.117872
69609.770580,148.041188,-518.144159,10035.851024
69609.770891,0.000000,74.020594,9959.241474
69609.771202,296.082377,0.000000,10801.946522
69609.771514,74.020594,0.000000,10189.070123
69609.771825,74.020594,0.000000,10189.070123
69609.772136,74.020594,0.000000,10265.679673
69609.772447,148.041188,0.000000,10342.289223
69609.772758,0.000000,-148.041188,10342.289223
69609.773069,148.041188,0.000000,10418.898773
69609.773381,222.061783,222.061783,10572.117872
69609.773692,74.020594,-222.061783,10495.508323
69609.774003,296.082377,-518.144159,10342.289223
69609.774314,74.020594,0.000000,10418.898773
69609.774625,0.000000,74.020594,10189.070123
69609.774936,222.061783,0.000000,10495.508323
69609.775248,222.061783,-148.041188,9959.241474
69609.775559,148.041188,-148.041188,10189.070123
69609.775870,222.061783,0.000000,10418.898773
69609.776181,74.020594,444.123565,10955.165621
69609.776492,-296.082377,-592.164754,9576.193725
69609.776803,74.020594,-148.041188,10418.898773
69609.777115,0.000000,0.000000,10265.679673
69609.777426,592.164754,0.000000,10189.070123
69609.777737,0.000000,0.000000,10265.679673
69609.778048,0.000000,0.000000,10342.289223
69609.778359,148.041188,0.000000,10418.898773
69609.778670,148.041188,0.000000,10265.679673
69609.778982,-370.102971,148.041188,10572.117872
69609.779293,0.000000,74.020594,10572.117872
69609.779604,-222.061783,222.061783,10648.727422
69609.779915,0.000000,148.041188,9959.241474
69609.780226,222.061783,74.020594,10189.070123
69609.780537,148.041188,0.000000,10572.117872
69609.780849,-222.061783,74.020594,10648.727422
69609.781160,0.000000,0.000000,10189.070123
69609.781471,74.020594,0.000000,10035.851024
69609.781782,-370.102971,0.000000,10648.727422
69609.782093,0.000000,-148.041188,10265.679673
69609.782404,74.020594,0.000000,10342.289223
69609.782716,74.020594,0.000000,10112.460574
69609.783027,296.082377,148.041188,10418.898773
69609.783338,296.082377,74.020594,10112.460574
69609.783649,0.000000,-222.061783,10342.289223
69609.783960,148.041188,-518.144159,10495.508323
69609.784271,0.000000,0.000000,10265.679673
69609.784583,148.041188,0.000000,10035.851024
69609.784894,0.000000,0.000000,10112.460574
69609.785205,0.000000,0.000000,10265.679673
69609.785516,0.000000,0.000000,10572.117872
69609.785827,74.020594,0.000000,10418.898773
69609.786138,0.000000,444.123565,10035.851024
69609.786450,0.000000,0.000000,10189.070123
69609.786761,666.185348,-592.164754,9882.631924
69609.787072,0.000000,0.000000,10342.289223
69609.787383,74.020594,74.020594,10112.460574
69609.787694,222.061783,0.000000,10418.898773
69609.788005,-148.041188,-222.061783,10418.898773
69609.788316,0.000000,0.000000,10265.679673
69609.788628,222.061783,148.041188,10265.679673
69609.788939,370.102971,-370.102971,10189.070123
69609.789250,148.041188,-370.102971,10342.289223
69609.789561,-148.041188,0.000000,10495.508323
69609.789872,-148.041188,0.000000,10495.508323
69609.790183,296.082377,0.000000,10035.851024
69609.790495,74.020594,0.000000,10035.851024
69609.790806,0.000000,74.020594,10342.289223
69609.791117,0.000000,74.020594,10418.898773
69609.791428,74.020594,0.000000,10418.898773
69609.791739,0.000000,-666.185348,10418.898773
69609.792050,0.000000,0.000000,9806.022374
69609.792362,296.082377,222.061783,10648.727422
69609.792673,148.041188,0.000000,10342.289223
69609.792984,74.020594,-222.061783,10495.508323
69609.793295,0.000000,-222.061783,10189.070123
69609.793606,222.061783,0.000000,10342.289223
69609.793917,148.041188,148.041188,10265.679673
69609.794229,0.000000,74.020594,10035.851024
69609.794540,0.000000,0.000000,10112.460574
69609.794851,-666.185348,-296.082377,10418.898773
69609.795162,0.000000,-592.164754,10342.289223
69609.795473,-592.164754,0.000000,10035.851024
69609.795784,0.000000,0.000000,10648.727422
69609.796096,0.000000,0.000000,10418.898773
69609.796407,0.000000,0.000000,10495.508323
69609.796718,74.020594,0.000000,10035.851024
69609.797029,74.020594,0.000000,10189.070123
69609.797340,296.082377,0.000000,10189.070123
69609.797651,0.000000,0.000000,10495.508323
69609.797963,0.000000,0.000000,10189.070123
69609.798274,74.020594,0.000000,10112.460574
69609.798585,0.000000,0.000000,10189.070123
69609.798896,296.082377,-296.082377,10189.070123
69609.799207,-148.041188,74.020594,10035.851024
69609.799518,-222.061783,740.205942,10725.336972
69609.799830,74.020594,0.000000,10418.898773
69609.800141,370.102971,74.020594,10495.508323
69609.800452,0.000000,-222.061783,10265.679673
69609.800763,74.020594,0.000000,10342.289223
69609.801074,0.000000,74.020594,10342.289223
69609.801385,0.000000,0.000000,10418.898773
69609.801697,222.061783,0.000000,10342.289223
69609.802008,-296.082377,0.000000,10418.898773
69609.802319,74.020594,-222.061783,10418.898773
69609.802630,74.020594,0.000000,10418.898773
69609.802941,222.061783,0.000000,10112.460574
69609.803252,74.020594,148.041188,10035.851024
69609.803563,0.000000,0.000000,10189.070123
69609.803875,74.020594,0.000000,10189.070123
69609.804186,296.082377,-74.020594,10648.727422
69609.804497,592.164754,0.000000,10342.289223
69609.804808,148.041188,296.082377,10342.289223
69609.805119,0.000000,-148.041188,10342.289223
69609.805430,-148.041188,-296.082377,10725.336972
69609.805742,74.020594,0.000000,10265.679673
69609.806053,296.082377,0.000000,10418.898773
69609.806364,0.000000,0.000000,10265.679673
69609.806675,-148.041188,0.000000,10418.898773
69609.806986,0.000000,74.020594,10342.289223
69609.807297,0.000000,74.020594,10112.460574
69609.807608,222.061783,-296.082377,10801.946522
69609.807920,296.082377,-148.041188,10112.460574
69609.808231,-518.144159,296.082377,9882.631924
69609.808542,0.000000,0.000000,10418.898773
69609.808853,370.102971,148.041188,10418.898773
69609.809164,74.020594,-222.061783,10265.679673
69609.809475,148.041188,0.000000,10342.289223
69609.809787,0.000000,0.000000,10265.679673
69609.810098,148.041188,222.061783,10572.117872
69609.810409,518.144159,0.000000,10725.336972
69609.810720,444.123565,0.000000,10342.289223
69609.811031,148.041188,-222.061783,10342.289223
69609.811342,0.000000,0.000000,10342.289223
69609.811654,296.082377,592.164754,10572.117872
69609.811965,0.000000,0.000000,10112.460574
69609.812276,74.020594,-148.041188,10035.851024
69609.812587,0.000000,0.000000,10112.460574
69609.812898,0.000000,74.020594,10418.898773
69609.813209,-296.082377,444.123565,10112.460574
69609.813520,-518.144159,0.000000,10572.117872
69609.813832,296.082377,-296.082377,10572.117872
69609.814143,0.000000,-148.041188,10265.679673
69609.814454,0.000000,296.082377,10495.508323
69609.814765,0.000000,0.000000,10035.851024
69609.815076,0.000000,0.000000,10418.898773
69609.815387,74.020594,0.000000,10342.289223
69609.815699,148.041188,0.000000,10342.289223
69609.816010,0.000000,0.000000,10035.851024
69609.816321,0.000000,0.000000,10189.070123
69609.816632,0.000000,74.020594,10189.070123
69609.816943,0.000000,148.041188,10342.289223
69609.817254,296.082377,222.061783,10112.460574
69609.817565,-370.102971,222.061783,10189.070123
69609.817877,148.041188,-518.144159,10725.336972
69609.818188,222.061783,148.041188,10035.851024
69609.818499,74.020594,0.000000,10418.898773
69609.818810,74.020594,0.000000,10495.508323
69609.819121,0.000000,0.000000,10418.898773
69609.819432,0.000000,0.000000,10265.679673
69609.819744,222.061783,0.000000,10189.070123
69609.820055,222.061783,74.020594,10265.679673
69609.820366,-296.082377,0.000000,10955.165621
69609.820677,148.041188,-296.082377,10418.898773
69609.820988,0.000000,296.082377,10035.851024
69609.821299,222.061783,0.000000,10035.851024
69609.821610,296.082377,0.000000,10189.070123
69609.821922,148.041188,-222.061783,10265.679673
69609.822233,0.000000,0.000000,10418.898773
69609.822544,-148.041188,222.061783,10342.289223
69609.822855,0.000000,148.041188,9959.241474
69609.823166,74.020594,0.000000,10418.898773
69609.823477,0.000000,74.020594,9729.412825
69609.823789,-296.082377,444.123565,11108.384721
69609.824100,0.000000,0.000000,10342.289223
69609.824411,-148.041188,-222.061783,10418.898773
69609.824722,74.020594,-148.041188,10189.070123
69609.825033,74.020594,0.000000,10342.289223
69609.825344,0.000000,0.000000,10648.727422
69609.825656,0.000000,0.000000,10265.679673
69609.825967,222.061783,0.000000,10495.508323
69609.826278,222.061783,-74.020594,9882.631924
69609.826589,74.020594,148.041188,9806.022374
69609.826900,74.020594,74.020594,10189.070123
69609.827211,222.061783,-444.123565,10648.727422
69609.827522,148.041188,222.061783,10112.460574
69609.827834,0.000000,0.000000,10035.851024
69609.828145,-296.082377,0.000000,10418.898773
69609.828456,-148.041188,0.000000,10648.727422
69609.828767,0.000000,148.041188,10955.165621
69609.829078,296.082377,0.000000,9882.631924
69609.829389,74.020594,222.061783,9806.022374
69609.829701,74.020594,0.000000,10495.508323
69609.830012,74.020594,0.000000,10342.289223
69609.830323,296.082377,0.000000,10189.070123
69609.830634,0.000000,0.000000,10342.289223
69609.830945,0.000000,-296.082377,10418.898773
69609.831256,0.000000,0.000000,10572.117872
69609.831567,518.144159,0.000000,10801.946522
69609.831879,0.000000,0.000000,10189.070123
69609.832190,0.000000,0.000000,10495.508323
69609.832501,0.000000,148.041188,10418.898773
69609.832812,0.000000,444.123565,10342.289223
69609.833123,222.061783,-592.164754,10035.851024
69609.833434,0.000000,296.082377,10112.460574
69609.833746,74.020594,-74.020594,9039.926876
69609.834057,0.000000,0.000000,10572.117872
69609.834368,74.020594,666.185348,10801.946522
69609.834679,0.000000,0.000000,10189.070123
69609.834990,0.000000,0.000000,9959.241474
69609.835301,0.000000,0.000000,10189.070123
69609.835613,0.000000,74.020594,10342.289223
69609.835924,-444.123565,222.061783,9882.631924
69609.836235,148.041188,-148.041188,10878.556072
69609.836546,518.144159,-444.123565,10495.508323
69609.836857,0.000000,0.000000,10265.679673
69609.837168,148.041188,0.000000,10418.898773
69609.837479,0.000000,74.020594,10418.898773
69609.837791,0.000000,0.000000,10418.898773
69609.838102,148.041188,0.000000,10572.117872
69609.838413,74.020594,74.020594,10265.679673
69609.838724,0.000000,296.082377,10035.851024
69609.839035,0.000000,-296.082377,10035.851024
69609.839346,148.041188,370.102971,10955.165621
69609.839658,296.082377,0.000000,10342.289223
69609.839969,0.000000,0.000000,10342.289223
69609.840280,0.000000,0.000000,10418.898773
69609.840591,74.020594,-222.061783,10342.289223
69609.840902,0.000000,0.000000,10189.070123
69609.841213,74.020594,0.000000,10265.679673
69609.841524,0.000000,-296.082377,9882.631924
69609.841836,-370.102971,-296.082377,9729.412825
69609.842147,-222.061783,0.000000,9806.022374
69609.842458,592.164754,0.000000,10112.460574
69609.842769,0.000000,0.000000,10495.508323
69609.843080,0.000000,0.000000,10342.289223
69609.843391,74.020594,148.041188,10265.679673
69609.843703,0.000000,74.020594,10418.898773
69609.844014,0.000000,0.000000,10342.289223
69609.844325,74.020594,-518.144159,11031.775171
69609.844636,0.000000,74.020594,10418.898773
69609.844947,-296.082377,444.123565,10572.117872
69609.845258,222.061783,148.041188,9882.631924
69609.845570,-222.061783,-148.041188,10189.070123
69609.845881,-296.082377,74.020594,10112.460574
69609.846192,296.082377,0.000000,10265.679673
69609.846503,0.000000,0.000000,10418.898773
69609.846814,0.000000,0.000000,10572.117872
69609.847125,-222.061783,296.082377,11261.603821
69609.847436,-148.041188,518.144159,9882.631924
69609.847748,0.000000,0.000000,10112.460574
69609.848059,296.082377,0.000000,10342.289223
69609.848370,0.000000,0.000000,10265.679673
69609.848681,0.000000,0.000000,10801.946522
69609.848992,222.061783,0.000000,10342.289223
69609.849303,0.000000,0.000000,10418.898773
69609.849615,74.020594,0.000000,10495.508323
69609.849926,74.020594,296.082377,10955.165621
69609.850237,148.041188,0.000000,10572.117872
69609.850548,0.000000,0.000000,10342.289223
69609.850859,74.020594,0.000000,10418.898773
69609.851170,0.000000,0.000000,10265.679673
69609.851481,296.082377,0.000000,10035.851024
69609.851793,-148.041188,0.000000,9729.412825
69609.852104,444.123565,-74.020594,10112.460574
69609.852415,74.020594,0.000000,10265.679673
69609.852726,0.000000,0.000000,10418.898773
69609.853037,148.041188,0.000000,10342.289223
69609.853348,0.000000,0.000000,10342.289223
69609.853660,-296.082377,74.020594,10342.289223
69609.853971,148.041188,0.000000,10265.679673
69609.854282,74.020594,222.061783,10648.727422
69609.854593,0.000000,0.000000,10878.556072
69609.854904,518.144159,74.020594,10725.336972
69609.855215,0.000000,-74.020594,10035.851024
69609.855526,0.000000,444.123565,9806.022374
69609.855838,74.020594,74.020594,10342.289223
69609.856149,0.000000,0.000000,10725.336972
69609.856460,0.000000,0.000000,10112.460574
69609.856771,148.041188,74.020594,10189.070123
69609.857082,-148.041188,0.000000,10955.165621
69609.857393,-296.082377,444.123565,10035.851024
69609.857705,0.000000,222.061783,10265.679673
69609.858016,74.020594,74.020594,10342.289223
69609.858327,74.020594,-148.041188,10189.070123
69609.858638,0.000000,-148.041188,10112.460574
69609.858949,0.000000,148.041188,10265.679673
69609.859260,0.000000,0.000000,10495.508323
69609.859572,-222.061783,0.000000,10572.117872
69609.859883,74.020594,-592.164754,10342.289223
69609.860194,0.000000,0.000000,9806.022374
69609.860505,518.144159,74.020594,9729.412825
69609.860816,370.102971,-592.164754,10342.289223
69609.861127,-148.041188,0.000000,10418.898773
69609.861438,222.061783,-444.123565,10342.289223
69609.861750,74.020594,0.000000,10189.070123
69609.862061,0.000000,0.000000,10189.070123
69609.862372,0.000000,-148.041188,10418.898773
69609.862683,222.061783,74.020594,10265.679673
69609.862994,0.000000,-222.061783,10342.289223
69609.863305,444.123565,0.000000,10648.727422
69609.863617,-148.041188,-148.041188,9806.022374
69609.863928,0.000000,148.041188,10495.508323
69609.864239,0.000000,0.000000,10342.289223
69609.864550,0.000000,0.000000,10112.460574
69609.864861,0.000000,0.000000,10189.070123
69609.865172,74.020594,0.000000,10418.898773
69609.865483,0.000000,-148.041188,10265.679673
69609.865795,74.020594,-148.041188,10418.898773
69609.866106,296.082377,74.020594,10342.289223
69609.866417,74.020594,-222.061783,10342.289223
69609.866728,0.000000,-148.041188,10189.070123
69609.867039,518.144159,-740.205942,10955.165621
69609.867350,-148.041188,-518.144159,10112.460574
69609.867662,-296.082377,148.041188,10035.851024
69609.867973,-296.082377,-222.061783,10342.289223
69609.868284,0.000000,0.000000,10112.460574
69609.868595,0.000000,74.020594,10495.508323
69609.868906,148.041188,0.000000,10189.070123
69609.869217,74.020594,-148.041188,10265.679673
69609.869529,0.000000,0.000000,10265.679673
69609.869840,148.041188,-296.082377,10572.117872
69609.870151,444.123565,0.000000,9729.412825
69609.870462,0.000000,296.082377,10418.898773
69609.870773,148.041188,0.000000,10189.070123
69609.871084,0.000000,0.000000,10112.460574
69609.871395,0.000000,-296.082377,10265.679673
69609.871707,0.000000,0.000000,10189.070123
69609.872018,0.000000,0.000000,10572.117872
69609.872329,74.020594,74.020594,10342.289223
69609.872640,74.020594,0.000000,10418.898773
69609.872951,-370.102971,0.000000,9882.631924
69609.873262,296.082377,74.020594,10189.070123
69609.873574,0.000000,0.000000,10112.460574
69609.873885,0.000000,0.000000,10342.289223
69609.874196,222.061783,-444.123565,9806.022374
69609.874507,74.020594,0.000000,10265.679673
69609.874818,0.000000,0.000000,10418.898773
69609.875129,0.000000,0.000000,10342.289223
69609.875440,222.061783,0.000000,10265.679673
69609.875752,0.000000,296.082377,9882.631924
69609.876063,0.000000,-296.082377,10495.508323
69609.876374,0.000000,0.000000,10035.851024
69609.876685,0.000000,0.000000,10189.070123
69609.876996,74.020594,148.041188,9806.022374
69609.877307,74.020594,74.020594,10418.898773
69609.877619,74.020594,0.000000,10495.508323
69609.877930,0.000000,0.000000,10265.679673
69609.878241,-222.061783,74.020594,10342.289223
69609.878552,-148.041188,0.000000,9959.241474
69609.878863,0.000000,222.061783,10572.117872
69609.879174,592.164754,0.000000,11108.384721
69609.879486,74.020594,-370.102971,10265.679673
69609.879797,222.061783,148.041188,10112.460574
69609.880108,74.020594,-148.041188,10418.898773
69609.880419,0.000000,0.000000,10572.117872
69609.880730,0.000000,74.020594,10342.289223
69609.881041,0.000000,-148.041188,10189.070123
69609.881352,0.000000,222.061783,10112.460574
69609.881664,0.000000,74.020594,10265.679673
69609.881975,0.000000,0.000000,10342.289223
69609.882286,0.000000,0.000000,10418.898773
69609.882597,0.000000,0.000000,10418.898773
69609.882908,-592.164754,296.082377,9806.022374
69609.883219,740.205942,-518.144159,10955.165621
69609.883531,-222.061783,296.082377,10572.117872
69609.883842,148.041188,0.000000,10112.460574
69609.884153,222.061783,0.000000,10495.508323
69609.884464,74.020594,148.041188,10189.070123
69609.884775,0.000000,0.000000,10265.679673
69609.885086,148.041188,0.000000,10342.289223
69609.885397,74.020594,148.041188,10342.289223
69609.885709,-666.185348,518.144159,9729.412825
69609.886020,-296.082377,0.000000,10648.727422
69609.886331,0.000000,-296.082377,9806.022374
69609.886642,0.000000,0.000000,10035.851024
69609.886953,444.123565,0.000000,10265.679673
69609.887264,0.000000,148.041188,10342.289223
69609.887576,0.000000,0.000000,10265.679673
69609.887887,74.020594,0.000000,10342.289223
69609.888198,74.020594,-222.061783,10418.898773
69609.888509,592.164754,74.020594,10189.070123
69609.888820,148.041188,74.020594,10495.508323
69609.889131,0.000000,0.000000,10495.508323
69609.889442,0.000000,0.000000,10265.679673
69609.889754,0.000000,222.061783,10342.289223
69609.890065,0.000000,0.000000,9959.241474
69609.890376,0.000000,0.000000,10265.679673
69609.890687,0.000000,148.041188,10418.898773
69609.890998,0.000000,0.000000,10342.289223
69609.891309,74.020594,0.000000,10648.727422
69609.891621,0.000000,0.000000,10112.460574
69609.891932,148.041188,0.000000,10112.460574
69609.892243,74.020594,-370.102971,10418.898773
69609.892554,-148.041188,-222.061783,11031.775171
69609.892865,148.041188,0.000000,10495.508323
69609.893176,222.061783,74.020594,10265.679673
69609.893488,0.000000,-148.041188,10342.289223
69609.893799,0.000000,-222.061783,9959.241474
69609.894110,0.000000,444.123565,9729.412825
69609.894421,148.041188,0.000000,10342.289223
69609.894732,74.020594,0.000000,9959.241474
69609.895043,296.082377,74.020594,9806.022374
69609.895354,0.000000,0.000000,10418.898773
69609.895666,0.000000,0.000000,10112.460574
69609.895977,0.000000,0.000000,10418.898773
69609.896288,0.000000,0.000000,10265.679673
69609.896599,0.000000,148.041188,10342.289223
69609.896910,-148.041188,222.061783,10342.289223
69609.897221,-518.144159,518.144159,9806.022374
69609.897533,74.020594,-592.164754,10112.460574
69609.897844,222.061783,-592.164754,10878.556072
69609.898155,0.000000,74.020594,10418.898773
69609.898466,370.102971,74.020594,10035.851024
69609.898777,0.000000,0.000000,10265.679673
69609.899088,222.061783,0.000000,10342.289223
69609.899399,0.000000,0.000000,10342.289223
69609.899711,0.000000,148.041188,10112.460574
69609.900022,0.000000,296.082377,10495.508323
69609.900333,0.000000,0.000000,10265.679673
69609.900644,0.000000,0.000000,10495.508323
69609.900955,0.000000,0.000000,10112.460574
69609.901266,-592.164754,0.000000,11108.384721
69609.901578,0.000000,296.082377,10035.851024
69609.901889,-370.102971,148.041188,9882.631924
69609.902200,74.020594,222.061783,10418.898773
69609.902511,0.000000,0.000000,10418.898773
69609.902822,74.020594,-296.082377,10342.289223
69609.903133,74.020594,0.000000,10342.289223
69609.903444,148.041188,0.000000,10035.851024
69609.903755,222.061783,0.000000,10495.508323
69609.904066,0.000000,0.000000,10648.727422
69609.904377,0.000000,148.041188,9806.022374
69609.904688,0.000000,296.082377,10418.898773
69609.904998,0.000000,222.061783,10955.165621
69609.905309,0.000000,-296.082377,10265.679673
69609.905620,74.020594,74.020594,10265.679673
69609.905931,0.000000,0.000000,10418.898773
69609.906242,74.020594,0.000000,10572.117872
69609.906553,222.061783,0.000000,10265.679673
69609.906864,296.082377,0.000000,9806.022374
69609.907175,148.041188,222.061783,10035.851024
69609.907486,222.061783,-518.144159,10495.508323
69609.907797,-518.144159,0.000000,10418.898773
69609.908108,0.000000,0.000000,10418.898773
69609.908419,0.000000,74.020594,9959.241474
69609.908730,-296.082377,0.000000,10342.289223
69609.909041,0.000000,0.000000,10265.679673
69609.909351,0.000000,0.000000,10418.898773
69609.909662,296.082377,-148.041188,10495.508323
69609.909973,148.041188,148.041188,9422.974625
69609.910284,0.000000,0.000000,10035.851024
69609.910595,296.082377,0.000000,10878.556072
69609.910906,0.000000,0.000000,10112.460574
69609.911217,296.082377,296.082377,10495.508323
69609.911528,222.061783,-222.061783,10189.070123
69609.911839,0.000000,0.000000,10112.460574
69609.912150,0.000000,0.000000,10189.070123
69609.912461,0.000000,0.000000,10342.289223
69609.912772,0.000000,0.000000,10342.289223
69609.913083,0.000000,296.082377,10418.898773
69609.913394,0.000000,0.000000,10342.289223
69609.913705,148.041188,-222.061783,10342.289223
69609.914015,370.102971,370.102971,10112.460574
69609.914326,0.000000,74.020594,10342.289223
69609.914637,0.000000,74.020594,10495.508323
69609.914948,0.000000,0.000000,10418.898773
69609.915259,148.041188,0.000000,10265.679673
69609.915570,148.041188,-148.041188,10112.460574
69609.915881,296.082377,0.000000,10112.460574
69609.916192,148.041188,0.000000,10265.679673
69609.916503,0.000000,0.000000,10265.679673
69609.916814,0.000000,148.041188,9806.022374
69609.917125,148.041188,-296.082377,10955.165621
69609.917436,148.041188,-296.082377,10342.289223
69609.917747,0.000000,0.000000,9882.631924
69609.918058,-148.041188,74.020594,10495.508323
69609.918368,74.020594,0.000000,10112.460574
69609.918679,0.000000,0.000000,10112.460574
69609.918990,0.000000,74.020594,10418.898773
69609.919301,74.020594,0.000000,10189.070123
69609.919612,148.041188,74.020594,10418.898773
69609.919923,148.041188,0.000000,10955.165621
69609.920234,0.000000,-444.123565,9882.631924
69609.920545,0.000000,0.000000,10495.508323
69609.920856,74.020594,0.000000,10342.289223
69609.921167,666.185348,0.000000,10265.679673
69609.921478,222.061783,-222.061783,10112.460574
69609.921789,0.000000,0.000000,10265.679673
69609.922100,0.000000,0.000000,10265.679673
69609.922411,0.000000,0.000000,10265.679673
69609.922721,0.000000,518.144159,10725.336972
69609.923032,0.000000,0.000000,10801.946522
69609.923343,0.000000,-296.082377,10189.070123
69609.923654,0.000000,74.020594,10342.289223
69609.923965,74.020594,0.000000,10495.508323
69609.924276,148.041188,0.000000,10189.070123
69609.924587,222.061783,0.000000,9882.631924
69609.924898,0.000000,0.000000,10265.679673
69609.925209,0.000000,-148.041188,9959.241474
69609.925520,-518.144159,148.041188,10572.117872
69609.925831,0.000000,0.000000,10725.336972
69609.926142,222.061783,74.020594,10725.336972
69609.926453,0.000000,0.000000,10265.679673
69609.926764,-148.041188,0.000000,10955.165621
69609.927074,0.000000,0.000000,10495.508323
69609.927385,148.041188,0.000000,10342.289223
69609.927696,-148.041188,-222.061783,10265.679673
69609.928007,0.000000,0.000000,10342.289223
69609.928318,296.082377,296.082377,9806.022374
69609.928629,222.061783,-666.185348,10725.336972
69609.928940,-666.185348,222.061783,10265.679673
69609.929251,222.061783,0.000000,10418.898773
69609.929562,74.020594,0.000000,11261.603821
69609.929873,222.061783,0.000000,10112.460574
69609.930184,0.000000,148.041188,10495.508323
69609.930495,0.000000,0.000000,10418.898773
69609.930806,0.000000,74.020594,10572.117872
69609.931117,74.020594,0.000000,9882.631924
69609.931427,0.000000,74.020594,10035.851024
69609.931738,0.000000,0.000000,10189.070123
69609.932049,-148.041188,74.020594,10572.117872
69609.932360,-148.041188,74.020594,10648.727422
69609.932671,148.041188,148.041188,10418.898773
69609.932982,0.000000,-296.082377,9499.584175
69609.933293,296.082377,592.164754,9806.022374
69609.933604,222.061783,0.000000,10112.460574
69609.933915,222.061783,444.123565,10495.508323
69609.934226,148.041188,74.020594,10265.679673
69609.934537,0.000000,0.000000,10112.460574
69609.934848,0.000000,0.000000,10112.460574
69609.935159,0.000000,74.020594,10035.851024
69609.935470,0.000000,148.041188,10418.898773
69609.935780,0.000000,74.020594,11031.775171
69609.936091,0.000000,-296.082377,10112.460574
69609.936402,-222.061783,0.000000,10265.679673
69609.936713,-296.082377,0.000000,10495.508323
69609.937024,0.000000,74.020594,10495.508323
69609.937335,0.000000,74.020594,10342.289223
69609.937646,0.000000,0.000000,10265.679673
69609.937957,296.082377,0.000000,10265.679673
69609.938268,0.000000,-222.061783,9882.631924
69609.938579,0.000000,148.041188,10572.117872
69609.938890,740.205942,-222.061783,10035.851024
69609.939201,148.041188,0.000000,10265.679673
69609.939512,148.041188,0.000000,10265.679673
69609.939823,0.000000,-222.061783,10342.289223
69609.940134,0.000000,0.000000,10418.898773
69609.940444,0.000000,-148.041188,10189.070123
69609.940755,0.000000,74.020594,10342.289223
69609.941066,148.041188,148.041188,10342.289223
69609.941377,222.061783,0.000000,10648.727422
69609.941688,74.020594,-370.102971,10878.556072
69609.941999,148.041188,0.000000,10189.070123
69609.942310,0.000000,0.000000,10189.070123
69609.942621,222.061783,-148.041188,10725.336972
69609.942932,74.020594,0.000000,10572.117872
69609.943243,0.000000,74.020594,10112.460574
69609.943554,148.041188,-222.061783,10189.070123
69609.943865,0.000000,0.000000,10878.556072
69609.944176,-148.041188,592.164754,10495.508323
69609.944487,666.185348,0.000000,10725.336972
69609.944797,444.123565,222.061783,9729.412825
69609.945108,74.020594,0.000000,10112.460574
69609.945419,-148.041188,0.000000,10495.508323
69609.945730,0.000000,0.000000,10572.117872
69609.946041,0.000000,0.000000,10725.336972
69609.946352,222.061783,0.000000,10265.679673
69609.946663,444.123565,74.020594,10342.289223
69609.946974,296.082377,-222.061783,10495.508323
69609.947285,-296.082377,296.082377,9959.241474
69609.947596,-74.020594,74.020594,9806.022374
69609.947907,222.061783,0.000000,10112.460574
69609.948218,370.102971,0.000000,10495.508323
69609.948529,74.020594,0.000000,10342.289223
69609.948840,0.000000,148.041188,10342.289223
69609.949150,0.000000,0.000000,10112.460574
69609.949461,0.000000,74.020594,10495.508323
69609.949772,-222.061783,0.000000,10572.117872
69609.950083,0.000000,74.020594,10725.336972
69609.950394,0.000000,0.000000,10265.679673
69609.950705,-148.041188,0.000000,10112.460574
69609.951016,74.020594,-74.020594,10112.460574
69609.951327,148.041188,148.041188,10648.727422
69609.951638,592.164754,-222.061783,11108.384721
69609.951949,74.020594,-148.041188,10495.508323
69609.952260,296.082377,0.000000,10342.289223
69609.952571,0.000000,-222.061783,10342.289223
69609.952882,0.000000,0.000000,10342.289223
69609.953193,-222.061783,0.000000,10265.679673
69609.953503,0.000000,0.000000,10265.679673
69609.953814,296.082377,0.000000,10725.336972
69609.954125,0.000000,0.000000,10342.289223
69609.954436,-592.164754,148.041188,10112.460574
69609.954747,-518.144159,0.000000,10495.508323
69609.955058,0.000000,0.000000,10418.898773
69609.955369,296.082377,0.000000,10265.679673
69609.955680,0.000000,0.000000,10265.679673
69609.955991,0.000000,0.000000,10418.898773
69609.956302,148.041188,74.020594,10035.851024
69609.956613,0.000000,0.000000,10112.460574
69609.956924,222.061783,-592.164754,10955.165621
69609.957235,148.041188,222.061783,10189.070123
69609.957546,0.000000,0.000000,10189.070123
69609.957856,0.000000,0.000000,10495.508323
69609.958167,296.082377,-296.082377,10418.898773
69609.958478,-296.082377,0.000000,10342.289223
69609.958789,0.000000,0.000000,10342.289223
69609.959100,74.020594,0.000000,10418.898773
69609.959411,0.000000,222.061783,10265.679673
69609.959722,74.020594,148.041188,10725.336972
69609.960033,444.123565,296.082377,10342.289223
69609.960344,222.061783,296.082377,10112.460574
69609.960655,0.000000,-148.041188,10418.898773
69609.960966,222.061783,592.164754,10189.070123
69609.961277,148.041188,0.000000,10189.070123
69609.961588,0.000000,0.000000,10342.289223
69609.961899,0.000000,-148.041188,10342.289223
69609.962209,-148.041188,74.020594,10418.898773
69609.962520,296.082377,296.082377,9882.631924
69609.962831,-518.144159,666.185348,9806.022374
69609.963142,148.041188,0.000000,9959.241474
69609.963453,148.041188,0.000000,10112.460574
69609.963764,0.000000,444.123565,10112.460574
69609.964075,148.041188,0.000000,10572.117872
69609.964386,74.020594,0.000000,10342.289223
69609.964697,74.020594,0.000000,10418.898773
69609.965008,148.041188,0.000000,10265.679673
69609.965319,148.041188,0.000000,10572.117872
69609.965630,0.000000,74.020594,10265.679673
69609.965941,74.020594,148.041188,10265.679673
69609.966252,0.000000,0.000000,10265.679673
69609.966563,-370.102971,74.020594,10342.289223
69609.966873,74.020594,-370.102971,10725.336972
69609.967184,296.082377,296.082377,10112.460574
69609.967495,-444.123565,-592.164754,10189.070123
69609.967806,0.000000,0.000000,10418.898773
69609.968117,74.020594,74.020594,9882.631924
69609.968428,74.020594,0.000000,10342.289223
69609.968739,0.000000,0.000000,10035.851024
69609.969050,0.000000,-148.041188,10265.679673
69609.969361,0.000000,0.000000,10418.898773
69609.969672,444.123565,296.082377,10418.898773
69609.969983,0.000000,0.000000,9959.241474
69609.970294,444.123565,222.061783,9806.022374
69609.970605,0.000000,148.041188,10342.289223
69609.970916,148.041188,888.247130,9959.241474
69609.971226,222.061783,0.000000,10418.898773
69609.971537,0.000000,0.000000,10495.508323
69609.971848,0.000000,74.020594,10342.289223
69609.972159,0.000000,0.000000,10342.289223
69609.972470,148.041188,74.020594,10418.898773
69609.972781,-222.061783,0.000000,10265.679673
69609.973092,-518.144159,-296.082377,10035.851024
69609.973403,592.164754,-222.061783,10572.117872
69609.973714,444.123565,0.000000,10572.117872
69609.974025,296.082377,-148.041188,10112.460574
69609.974336,148.041188,-148.041188,10265.679673
69609.974647,222.061783,222.061783,10265.679673
69609.974958,0.000000,0.000000,10112.460574
69609.975269,0.000000,148.041188,9729.412825
69609.975579,-370.102971,222.061783,10725.336972
69609.975890,222.061783,0.000000,10342.289223
69609.976201,222.061783,0.000000,10418.898773
69609.976512,0.000000,-148.041188,10418.898773
69609.976823,0.000000,-296.082377,10189.070123
69609.977134,-148.041188,-222.061783,10265.679673
69609.977445,0.000000,0.000000,10189.070123
69609.977756,222.061783,0.000000,10189.070123
69609.978067,296.082377,0.000000,10418.898773
69609.978378,0.000000,0.000000,11568.042020
69609.978689,222.061783,0.000000,10342.289223
69609.979000,222.061783,-148.041188,9882.631924
69609.979311,0.000000,222.061783,10418.898773
69609.979622,0.000000,148.041188,10418.898773
69609.979932,0.000000,0.000000,10495.508323
69609.980243,-148.041188,148.041188,10189.070123
69609.980554,0.000000,0.000000,10112.460574
69609.980865,148.041188,0.000000,10112.460574
69609.981176,0.000000,0.000000,10495.508323
69609.981487,0.000000,74.020594,10265.679673
69609.981798,148.041188,0.000000,9959.241474
69609.982109,0.000000,0.000000,10265.679673
69609.982420,0.000000,296.082377,9959.241474
69609.982731,74.020594,444.123565,9882.631924
69609.983042,296.082377,148.041188,10035.851024
69609.983353,74.020594,0.000000,10342.289223
69609.983664,0.000000,0.000000,10648.727422
69609.983975,0.000000,0.000000,10418.898773
69609.984285,0.000000,-148.041188,10418.898773
69609.984596,74.020594,0.000000,10418.898773
69609.984907,0.000000,74.020594,10418.898773
69609.985218,-888.247130,0.000000,11491.432470
69609.985529,148.041188,0.000000,10265.679673
69609.985840,74.020594,-592.164754,10342.289223
69609.986151,222.061783,0.000000,10418.898773
69609.986462,0.000000,-296.082377,10725.336972
69609.986773,-148.041188,74.020594,10418.898773
69609.987084,0.000000,0.000000,10035.851024
69609.987395,148.041188,0.000000,9959.241474
69609.987706,0.000000,-148.041188,10495.508323
69609.988017,814.226536,-592.164754,10725.336972
69609.988328,74.020594,0.000000,9806.022374
69609.988638,-962.267725,-74.020594,9806.022374
69609.988949,0.000000,0.000000,10189.070123
69609.989260,0.000000,-74.020594,10342.289223
69609.989571,-148.041188,-148.041188,10418.898773
69609.989882,0.000000,0.000000,10265.679673
69609.990193,0.000000,-370.102971,10342.289223
69609.990504,0.000000,0.000000,10112.460574
69609.990815,444.123565,518.144159,10572.117872
69609.991126,0.000000,0.000000,9806.022374
69609.991437,0.000000,0.000000,10648.727422
69609.991748,74.020594,74.020594,10495.508323
69609.992059,0.000000,296.082377,10418.898773
69609.992370,222.061783,0.000000,10801.946522
69609.992681,0.000000,-222.061783,10495.508323
69609.992992,-222.061783,0.000000,10342.289223
69609.993302,0.000000,0.000000,10342.289223
69609.993613,-296.082377,222.061783,11031.775171
69609.993924,222.061783,222.061783,11108.384721
69609.994235,0.000000,-222.061783,9576.193725
69609.994546,0.000000,74.020594,10112.460574
69609.994857,0.000000,0.000000,10342.289223
69609.995168,0.000000,74.020594,9959.241474
69609.995479,0.000000,0.000000,10112.460574
69609.995790,0.000000,0.000000,10495.508323
69609.996101,74.020594,0.000000,10189.070123
69609.996412,0.000000,-666.185348,10495.508323
69609.996723,-444.123565,0.000000,10035.851024
69609.997034,0.000000,0.000000,10112.460574
69609.997345,-222.061783,148.041188,10112.460574
69609.997655,0.000000,0.000000,10418.898773
69609.997966,222.061783,-148.041188,10725.336972
69609.998277,0.000000,-296.082377,10418.898773
69609.998588,296.082377,0.000000,10189.070123
69609.998899,74.020594,0.000000,10265.679673
69609.999210,0.000000,0.000000,10265.679673
69609.999521,148.041188,0.000000,10035.851024
69609.999832,0.000000,0.000000,10189.070123
69610.000143,-370.102971,74.020594,10648.727422
69610.000454,0.000000,0.000000,10189.070123
69610.000765,-74.020594,-148.041188,10035.851024
69610.001076,0.000000,0.000000,10112.460574
69610.001387,0.000000,592.164754,10112.460574
69610.001698,74.020594,-370.102971,10572.117872
69610.002008,0.000000,148.041188,10342.289223
69610.002319,370.102971,0.000000,10112.460574
69610.002630,0.000000,-222.061783,10189.070123
69610.002941,0.000000,0.000000,10189.070123
69610.003252,0.000000,-148.041188,10265.679673
69610.003563,296.082377,296.082377,10342.289223
69610.003874,222.061783,0.000000,10418.898773
69610.004185,0.000000,0.000000,10112.460574
69610.004495,-444.123565,0.000000,10572.117872
69610.004806,0.000000,222.061783,10418.898773
69610.005117,0.000000,592.164754,9729.412825
69610.005428,0.000000,0.000000,10495.508323
69610.005739,74.020594,0.000000,10112.460574
69610.006050,74.020594,0.000000,10265.679673
69610.006361,148.041188,-296.082377,10418.898773
69610.006671,-518.144159,-222.061783,9729.412825
69610.006982,-296.082377,0.000000,10495.508323
69610.007293,-666.185348,148.041188,10265.679673
69610.007604,74.020594,74.020594,10189.070123
69610.007915,0.000000,-444.123565,10112.460574
69610.008226,0.000000,-222.061783,10572.117872
69610.008537,0.000000,74.020594,10112.460574
69610.008848,148.041188,148.041188,10265.679673
69610.009158,148.041188,74.020594,10342.289223
69610.009469,518.144159,0.000000,10342.289223
69610.009780,592.164754,-592.164754,10112.460574
69610.010091,0.000000,222.061783,10418.898773
69610.010402,74.020594,148.041188,10265.679673
69610.010713,-296.082377,148.041188,10342.289223
69610.011024,-222.061783,0.000000,10342.289223
69610.011335,74.020594,0.000000,10265.679673
69610.011645,0.000000,0.000000,10342.289223
69610.011956,0.000000,-148.041188,10265.679673
69610.012267,-148.041188,518.144159,10035.851024
69610.012578,74.020594,222.061783,10878.556072
69610.012889,222.061783,-74.020594,10495.508323
69610.013200,148.041188,74.020594,10418.898773
69610.013511,296.082377,0.000000,10112.460574
69610.013821,74.020594,0.000000,10265.679673
69610.014132,0.000000,0.000000,10265.679673
69610.014443,0.000000,0.000000,10342.289223
69610.014754,0.000000,0.000000,10418.898773
69610.015065,74.020594,0.000000,10648.727422
69610.015376,0.000000,0.000000,10342.289223
69610.015687,-148.041188,0.000000,10495.508323
69610.015998,0.000000,0.000000,10265.679673
69610.016308,74.020594,518.144159,10035.851024
69610.016619,222.061783,592.164754,9729.412825
69610.016930,518.144159,-74.020594,10495.508323
69610.017241,-370.102971,444.123565,10189.070123
69610.017552,0.000000,74.020594,10495.508323
69610.017863,222.061783,0.000000,10112.460574
69610.018174,0.000000,-222.061783,10418.898773
69610.018484,0.000000,0.000000,10495.508323
69610.018795,0.000000,0.000000,10265.679673
69610.019106,-296.082377,222.061783,10495.508323
69610.019417,-296.082377,-74.020594,9729.412825
69610.019728,-74.020594,-222.061783,10112.460574
69610.020039,0.000000,-518.144159,10495.508323
69610.020350,148.041188,0.000000,10648.727422
69610.020661,296.082377,0.000000,10342.289223
69610.020971,0.000000,-222.061783,10342.289223
69610.021282,296.082377,0.000000,10495.508323
69610.021593,0.000000,0.000000,10265.679673
69610.021904,-222.061783,0.000000,10342.289223
69610.022215,0.000000,0.000000,10572.117872
69610.022526,-370.102971,222.061783,10342.289223
69610.022837,222.061783,0.000000,10265.679673
69610.023148,222.061783,-370.102971,10265.679673
69610.023458,444.123565,370.102971,10418.898773
69610.023769,0.000000,74.020594,10418.898773
69610.024080,148.041188,296.082377,10495.508323
69610.024391,148.041188,74.020594,10035.851024
69610.024702,0.000000,-148.041188,10112.460574
69610.025013,-296.082377,0.000000,10648.727422
69610.025324,222.061783,222.061783,10418.898773
69610.025634,0.000000,0.000000,10112.460574
69610.025945,-296.082377,0.000000,10495.508323
69610.026256,0.000000,74.020594,10265.679673
69610.026567,0.000000,-222.061783,10112.460574
69610.026878,0.000000,0.000000,10189.070123
69610.027189,0.000000,74.020594,10418.898773
69610.027500,222.061783,148.041188,10035.851024
69610.027811,0.000000,-222.061783,9729.412825
69610.028121,444.123565,-296.082377,10648.727422
69610.028432,0.000000,0.000000,9729.412825
69610.028743,148.041188,0.000000,10265.679673
69610.029054,0.000000,148.041188,10342.289223
69610.029365,148.041188,0.000000,10342.289223
69610.029676,-444.123565,0.000000,10418.898773
69610.029987,0.000000,0.000000,10342.289223
69610.030298,222.061783,0.000000,10265.679673
69610.030608,148.041188,-148.041188,10342.289223
69610.030919,0.000000,0.000000,10342.289223
69610.031230,0.000000,0.000000,10189.070123
69610.031541,0.000000,0.000000,10265.679673
69610.031852,74.020594,-222.061783,10112.460574
69610.032163,0.000000,0.000000,9652.803275
69610.032474,518.144159,-296.082377,9806.022374
69610.032784,-370.102971,296.082377,10265.679673
69610.033095,-296.082377,74.020594,10418.898773
69610.033406,0.000000,-296.082377,10418.898773
69610.033717,74.020594,-222.061783,10112.460574
69610.034028,0.000000,0.000000,10418.898773
69610.034339,74.020594,74.020594,10342.289223
69610.034650,-148.041188,0.000000,10648.727422
69610.034961,222.061783,296.082377,10725.336972
69610.035271,592.164754,592.164754,9806.022374
69610.035582,592.164754,-444.123565,10572.117872
69610.035893,-222.061783,0.000000,10495.508323
69610.036204,148.041188,222.061783,10112.460574
69610.036515,0.000000,0.000000,10112.460574
69610.036826,0.000000,0.000000,10265.679673
69610.037137,-148.041188,0.000000,10495.508323
69610.037447,0.000000,0.000000,10418.898773
69610.037758,592.164754,-148.041188,10342.289223
69610.038069,518.144159,-74.020594,10572.117872
69610.038380,222.061783,-74.020594,10112.460574
69610.038691,148.041188,0.000000,10265.679673
69610.039002,370.102971,296.082377,10725.336972
69610.039313,0.000000,0.000000,10112.460574
69610.039624,0.000000,0.000000,10418.898773
69610.039934,74.020594,0.000000,10418.898773
69610.040245,0.000000,0.000000,10495.508323
69610.040556,0.000000,0.000000,10648.727422
69610.040867,-296.082377,-370.102971,10265.679673
69610.041178,74.020594,0.000000,10418.898773
69610.041489,-222.061783,0.000000,9806.022374
69610.041800,0.000000,0.000000,10342.289223
69610.042111,0.000000,0.000000,10572.117872
69610.042421,222.061783,0.000000,10189.070123
69610.042732,222.061783,0.000000,10112.460574
69610.043043,0.000000,0.000000,10495.508323
69610.043354,222.061783,370.102971,10572.117872
69610.043665,222.061783,222.061783,10418.898773
69610.043976,296.082377,148.041188,10418.898773
69610.044287,0.000000,-296.082377,9959.241474
69610.044597,0.000000,-296.082377,10189.070123
69610.044908,0.000000,296.082377,10495.508323
69610.045219,0.000000,0.000000,10189.070123
69610.045530,296.082377,-296.082377,10189.070123
69610.045841,296.082377,-148.041188,9882.631924
69610.046152,0.000000,148.041188,10878.556072
69610.046463,-296.082377,222.061783,9959.241474
69610.046774,296.082377,-518.144159,9882.631924
69610.047084,0.000000,0.000000,10035.851024
69610.047395,0.000000,74.020594,10342.289223
69610.047706,0.000000,444.123565,10725.336972
69610.048017,-370.102971,74.020594,10342.289223
69610.048328,0.000000,0.000000,10112.460574
69610.048639,222.061783,148.041188,10342.289223
69610.048950,222.061783,0.000000,10112.460574
69610.049261,0.000000,0.000000,10342.289223
69610.049571,0.000000,-222.061783,10265.679673
69610.049882,0.000000,74.020594,10265.679673
69610.050193,0.000000,0.000000,10112.460574
69610.050504,-296.082377,518.144159,10495.508323
69610.050815,-74.020594,-370.102971,10189.070123
69610.051126,-148.041188,0.000000,10878.556072
69610.051437,0.000000,0.000000,10418.898773
69610.051747,0.000000,0.000000,10342.289223
69610.052058,0.000000,0.000000,10112.460574
69610.052369,0.000000,0.000000,10342.289223
69610.052680,0.000000,0.000000,10265.679673
69610.052991,74.020594,-148.041188,10342.289223
69610.053302,222.061783,0.000000,9882.631924
69610.053613,0.000000,0.000000,10955.165621
69610.053924,592.164754,148.041188,9806.022374
69610.054234,148.041188,-222.061783,10035.851024
69610.054545,0.000000,0.000000,10418.898773
69610.054856,370.102971,-148.041188,10418.898773
69610.055167,0.000000,0.000000,10112.460574
69610.055478,0.000000,0.000000,10342.289223
69610.055789,0.000000,0.000000,10418.898773
69610.056100,0.000000,370.102971,10342.289223
69610.056410,-74.020594,518.144159,10112.460574
69610.056721,-148.041188,592.164754,10112.460574
69610.057032,0.000000,0.000000,10648.727422
69610.057343,0.000000,0.000000,10342.289223
69610.057654,0.000000,592.164754,10801.946522
69610.057965,74.020594,0.000000,10342.289223
69610.058276,0.000000,-222.061783,10265.679673
69610.058587,74.020594,0.000000,10265.679673
69610.058897,-222.061783,-222.061783,10189.070123
69610.059208,148.041188,74.020594,10035.851024
69610.059519,0.000000,0.000000,10955.165621
69610.059830,0.000000,0.000000,10112.460574
69610.060141,0.000000,0.000000,10265.679673
69610.060452,-222.061783,74.020594,10342.289223
69610.060763,148.041188,0.000000,10265.679673
69610.061074,0.000000,0.000000,10265.679673
69610.061384,0.000000,0.000000,10495.508323
69610.061695,0.000000,0.000000,10342.289223
69610.062006,0.000000,-592.164754,10112.460574
69610.062317,0.000000,-296.082377,10112.460574
69610.062628,0.000000,0.000000,9729.412825
69610.062939,0.000000,0.000000,10342.289223
69610.063250,296.082377,0.000000,10878.556072
69610.063560,0.000000,0.000000,10265.679673
69610.063871,74.020594,0.000000,10342.289223
69610.064182,148.041188,74.020594,10418.898773
69610.064493,0.000000,0.000000,10342.289223
69610.064804,0.000000,0.000000,10342.289223
69610.065115,0.000000,0.000000,10801.946522
69610.065426,0.000000,0.000000,10342.289223
69610.065737,74.020594,-148.041188,10342.289223
69610.066047,222.061783,-222.061783,10342.289223
69610.066358,0.000000,-666.185348,10418.898773
69610.066669,222.061783,-222.061783,10112.460574
69610.066980,518.144159,0.000000,10112.460574
69610.067291,148.041188,0.000000,10189.070123
69610.067602,222.061783,518.144159,10418.898773
69610.067913,0.000000,0.000000,10342.289223
69610.068224,148.041188,0.000000,10495.508323
69610.068534,0.000000,0.000000,10112.460574
69610.068845,0.000000,0.000000,10342.289223
69610.069156,0.000000,592.164754,10418.898773
69610.069467,592.164754,0.000000,10725.336972
69610.069778,0.000000,-814.226536,10572.117872
69610.070089,222.061783,-222.061783,10035.851024
69610.070400,-296.082377,148.041188,10265.679673
69610.070710,0.000000,-148.041188,10572.117872
69610.071021,0.000000,0.000000,10418.898773
69610.071332,0.000000,0.000000,10342.289223
69610.071643,74.020594,0.000000,9959.241474
69610.071954,296.082377,0.000000,10495.508323
69610.072265,74.020594,222.061783,9959.241474
69610.072576,74.020594,0.000000,10112.460574
69610.072887,148.041188,0.000000,10112.460574
69610.073197,222.061783,0.000000,10495.508323
69610.073508,0.000000,-148.041188,10265.679673
69610.073819,74.020594,74.020594,10342.289223
69610.074130,148.041188,0.000000,10342.289223
69610.074441,0.000000,-296.082377,10035.851024
69610.074752,74.020594,74.020594,10035.851024
69610.075063,-444.123565,0.000000,10955.165621
69610.075373,-296.082377,-222.061783,9882.631924
69610.075684,-148.041188,0.000000,10418.898773
69610.075995,74.020594,0.000000,10189.070123
69610.076306,0.000000,0.000000,9959.241474
69610.076617,0.000000,0.000000,10189.070123
69610.076928,74.020594,74.020594,10342.289223
69610.077239,0.000000,0.000000,10418.898773
69610.077550,-370.102971,296.082377,10955.165621
69610.077860,296.082377,74.020594,10035.851024
69610.078171,222.061783,0.000000,9806.022374
69610.078482,0.000000,0.000000,10342.289223
69610.078793,74.020594,74.020594,10495.508323
69610.079104,0.000000,0.000000,10265.679673
69610.079415,0.000000,-370.102971,10189.070123
69610.079726,74.020594,0.000000,10035.851024
69610.080037,74.020594,0.000000,10035.851024
69610.080347,-296.082377,222.061783,10189.070123
69610.080658,0.000000,74.020594,10265.679673
69610.080969,0.000000,0.000000,10418.898773
69610.081280,-222.061783,74.020594,10648.727422
69610.081591,222.061783,0.000000,10342.289223
69610.081902,222.061783,-666.185348,10265.679673
69610.082213,0.000000,0.000000,10572.117872
69610.082523,74.020594,0.000000,10495.508323
69610.082834,0.000000,0.000000,10265.679673
69610.083145,0.000000,0.000000,10572.117872
69610.083456,0.000000,0.000000,10342.289223
69610.083767,74.020594,74.020594,10112.460574
69610.084078,0.000000,0.000000,10189.070123
69610.084389,74.020594,0.000000,10648.727422
69610.084700,370.102971,222.061783,10035.851024
69610.085010,-296.082377,296.082377,10112.460574
69610.085321,296.082377,0.000000,10418.898773
69610.085632,74.020594,74.020594,10342.289223
69610.085943,0.000000,0.000000,10572.117872
69610.086254,0.000000,0.000000,10112.460574
69610.086565,148.041188,74.020594,10035.851024
69610.086876,0.000000,0.000000,10342.289223
69610.087186,-222.061783,0.000000,10495.508323
69610.087497,0.000000,0.000000,10878.556072
69610.087808,74.020594,0.000000,10265.679673
69610.088119,0.000000,-148.041188,9729.412825
69610.088430,74.020594,-148.041188,10189.070123
69610.088741,74.020594,0.000000,10418.898773
69610.089052,148.041188,0.000000,10342.289223
69610.089363,0.000000,0.000000,10265.679673
69610.089673,148.041188,0.000000,10112.460574
69610.089984,74.020594,74.020594,10112.460574
69610.090295,0.000000,0.000000,10342.289223
69610.090606,148.041188,-148.041188,9806.022374
69610.090917,-296.082377,296.082377,10418.898773
69610.091228,-518.144159,74.020594,10035.851024
69610.091539,148.041188,296.082377,9882.631924
69610.091850,-222.061783,74.020594,10418.898773
69610.092160,-222.061783,0.000000,10418.898773
69610.092471,222.061783,74.020594,10418.898773
69610.092782,296.082377,0.000000,10112.460574
69610.093093,148.041188,888.247130,9959.241474
69610.093404,666.185348,2812.782580,10495.508323
69610.093715,296.082377,2294.638420,9806.022374
69610.094026,-1406.391290,740.205942,11414.822920
69610.094336,-1258.350101,592.164754,10878.556072
69610.094647,0.000000,3108.864956,9882.631924
69610.094958,0.000000,2590.720797,10265.679673
69610.095269,-1628.453072,0.000000,10801.946522
69610.095580,-1332.370696,0.000000,10418.898773
69610.095891,0.000000,518.144159,9806.022374
69610.096202,296.082377,-444.123565,10648.727422
69610.096513,222.061783,-444.123565,10112.460574
69610.096823,-148.041188,1406.391290,9882.631924
69610.097134,-962.267725,2294.638420,11951.089769
69610.097445,-1924.535449,1406.391290,11338.213370
69610.097756,-1924.535449,2072.576638,10189.070123
69610.098067,0.000000,3330.926739,9882.631924
69610.098378,518.144159,4219.173869,9652.803275
69610.098689,-1554.432478,4145.153275,10418.898773
69610.099000,-1480.411884,3923.091493,10955.165621
69610.099310,-1184.329507,3849.070898,10725.336972
69610.099621,-2442.679609,3552.988522,9499.584175
69610.099932,-3701.029710,3701.029710,11568.042020
69610.100243,-3552.988522,3330.926739,10801.946522
69610.100554,-3923.091493,2664.741391,10725.336972
69610.100865,-3108.864956,3478.967927,10189.070123
69610.101176,-3330.926739,3182.885551,10035.851024
69610.101486,-3627.009116,2886.803174,10035.851024
69610.101797,-3552.988522,3478.967927,9959.241474
69610.102108,-3552.988522,4071.132681,10035.851024
69610.102419,-4293.194464,3330.926739,9806.022374
69610.102730,-4589.276840,4293.194464,10342.289223
69610.103041,-4293.194464,3775.050304,10725.336972
69610.103352,-5699.585753,2368.659014,10418.898773
69610.103663,-4737.318029,2664.741391,10035.851024
69610.103974,-2738.761985,4663.297435,9806.022374
69610.104285,-3330.926739,3256.906145,9729.412825
69610.104596,-4885.359217,1480.411884,10112.460574
69610.104907,-4885.359217,2738.761985,10189.070123
69610.105217,-4441.235652,5699.585753,10495.508323
69610.105528,-5995.668130,4589.276840,10878.556072
69610.105839,-7846.182985,3552.988522,11414.822920
69610.106150,-7772.162391,3552.988522,11644.651570
69610.106461,-6809.894666,4071.132681,10572.117872
69610.106772,-5403.503377,2812.782580,10572.117872
69610.107083,-5625.565159,2368.659014,9729.412825
69610.107394,-3701.029710,2220.617826,9576.193725
69610.107705,-2812.782580,2664.741391,9576.193725
69610.108016,-2368.659014,2738.761985,9116.536426
69610.108327,-2738.761985,2368.659014,9269.755526
69610.108637,-4293.194464,1998.556043,9652.803275
69610.108948,-4663.297435,2664.741391,10495.508323
69610.109259,-6143.709319,1258.350101,11491.432470
69610.109570,-7105.977043,1110.308913,11108.384721
69610.109881,-4811.338623,2664.741391,11338.213370
69610.110192,-3627.009116,4367.215058,10495.508323
69610.110503,-2812.782580,4737.318029,9806.022374
69610.110814,-2368.659014,5551.544565,9422.974625
69610.111125,-2072.576638,6143.709319,9422.974625
69610.111436,-4737.318029,4145.153275,10725.336972
69610.111747,-6661.853478,2146.597232,11951.089769
69610.112058,-6587.832884,1480.411884,12257.527968
69610.112368,-5921.647536,2220.617826,12180.918418
69610.112679,-3552.988522,740.205942,10495.508323
69610.112990,-2590.720797,-814.226536,8810.098227
69610.113301,444.123565,370.102971,8963.317327
69610.113612,2590.720797,1184.329507,8733.488677
69610.113923,814.226536,1332.370696,8963.317327
69610.114234,0.000000,2220.617826,9882.631924
69610.114545,962.267725,5033.400406,9959.241474
69610.114856,-148.041188,4737.318029,10725.336972
69610.115167,-3627.009116,2590.720797,11644.651570
69610.115478,-4219.173869,592.164754,12104.308868
69610.115788,-5107.421000,2146.597232,10878.556072
69610.116099,-962.267725,6809.894666,11338.213370
69610.116410,0.000000,6069.688724,10648.727422
69610.116721,-3404.947333,0.000000,10648.727422
69610.117032,-2812.782580,-962.267725,10265.679673
69610.117343,1776.494261,1258.350101,9652.803275
69610.117654,1998.556043,2072.576638,10572.117872
69610.117965,1702.473667,666.185348,9652.803275
69610.118276,2442.679609,148.041188,9193.145976
69610.118587,1924.535449,-1332.370696,8733.488677
69610.118898,666.185348,-1332.370696,10035.851024
69610.119209,0.000000,2664.741391,11031.775171
69610.119519,74.020594,6365.771101,11797.870669
69610.119830,1110.308913,5551.544565,11568.042020
69610.120141,-1850.514855,740.205942,11031.775171
69610.120452,-1406.391290,-592.164754,10112.460574
69610.120763,1036.288319,3923.091493,9959.241474
69610.121074,2886.803174,6365.771101,11031.775171
69610.121385,-962.267725,1850.514855,11414.822920
69610.121696,-3478.967927,-1628.453072,10112.460574
69610.122007,1628.453072,-296.082377,9193.145976
69610.122318,1258.350101,1036.288319,10035.851024
69610.122629,-1850.514855,-592.164754,10265.679673
69610.122940,-1998.556043,-1924.535449,11108.384721
69610.123250,1554.432478,-1998.556043,10418.898773
69610.123561,1258.350101,-2886.803174,9346.365076
69610.123872,3256.906145,-592.164754,8733.488677
69610.124183,4663.297435,3108.864956,9346.365076
69610.124494,2960.823768,2368.659014,9652.803275
69610.124805,518.144159,-1406.391290,9806.022374
69610.125116,-1776.494261,-2368.659014,9959.241474
69610.125427,-1776.494261,888.247130,11261.603821
69610.125738,-2072.576638,2368.659014,13023.623466
69610.126049,-5551.544565,-1850.514855,12410.747068
69610.126360,-3923.091493,-5181.441594,10418.898773
69610.126670,1184.329507,-2294.638420,8427.050478
69610.126981,2220.617826,1776.494261,9499.584175
69610.127292,0.000000,1480.411884,10955.165621
69610.127603,-1924.535449,-296.082377,10035.851024
69610.127914,666.185348,-1702.473667,9499.584175
69610.128225,370.102971,-962.267725,8350.440928
69610.128536,-518.144159,0.000000,10265.679673
69610.128847,-2590.720797,-370.102971,12487.356617
69610.129158,-2886.803174,-1850.514855,11721.261119
69610.129469,518.144159,-888.247130,8656.879127
69610.129780,4219.173869,2738.761985,7354.516781
69610.130091,2738.761985,3849.070898,8733.488677
69610.130401,-962.267725,1850.514855,12180.918418
69610.130712,-4071.132681,-1110.308913,12180.918418
69610.131023,-3330.926739,74.020594,9806.022374
69610.131334,222.061783,3182.885551,9193.145976
69610.131645,-3404.947333,0.000000,12180.918418
69610.131956,-7920.203579,-3034.844362,14096.157163
69610.132267,-2368.659014,-740.205942,11184.994271
69610.132578,4515.256246,3330.926739,7354.516781
69610.132889,4515.256246,3108.864956,7124.688131
69610.133200,1480.411884,148.041188,9499.584175
69610.133511,-1998.556043,-296.082377,11108.384721
69610.133821,-296.082377,1258.350101,10189.070123
69610.134132,-518.144159,1184.329507,10648.727422
69610.134443,-3182.885551,-1554.432478,11261.603821
69610.134754,-5773.606348,-4145.153275,12870.404366
69610.135065,-3997.112087,-1110.308913,13100.233016
69610.135376,2368.659014,1924.535449,9499.584175
69610.135687,6365.771101,3108.864956,7354.516781
69610.135998,3849.070898,0.000000,7890.783629
69610.136309,1332.370696,-1110.308913,9806.022374
69610.136620,296.082377,74.020594,10418.898773
69610.136931,-1332.370696,888.247130,10648.727422
69610.137242,-2442.679609,-740.205942,12104.308868
69610.137552,-4145.153275,-3478.967927,13176.842566
69610.137863,-4737.318029,-3627.009116,11568.042020
69610.138174,814.226536,222.061783,10725.336972
69610.138485,6439.791695,3849.070898,8656.879127
69610.138796,4663.297435,1776.494261,8120.612279
69610.139107,1258.350101,-962.267725,9576.193725
69610.139418,222.061783,-444.123565,9882.631924
69610.139729,-1406.391290,2294.638420,10265.679673
69610.140040,-2146.597232,666.185348,12870.404366
69610.140351,-5107.421000,-4219.173869,12640.575717
69610.140662,-4811.338623,-5255.462188,12334.137518
69610.140972,1332.370696,-666.185348,10265.679673
69610.141283,5699.585753,2664.741391,8580.269578
69610.141594,6513.812290,888.247130,7431.126331
69610.141905,4071.132681,-2146.597232,8810.098227
69610.142216,2368.659014,-1332.370696,9039.926876
69610.142527,1480.411884,1850.514855,10035.851024
69610.142838,-1480.411884,814.226536,12104.308868
69610.143149,-4441.235652,-3182.885551,13406.671215
69610.143460,-2442.679609,-4219.173869,12870.404366
69610.143771,814.226536,296.082377,9422.974625
69610.144082,5403.503377,4589.276840,9346.365076
69610.144393,6143.709319,3034.844362,8886.707777
69610.144703,3182.885551,-296.082377,8886.707777
69610.145014,2146.597232,-814.226536,9269.755526
69610.145325,296.082377,1998.556043,10878.556072
69610.145636,-2664.741391,1258.350101,12180.918418
69610.145947,-5403.503377,-3849.070898,14325.985813
69610.146258,-5625.565159,-6143.709319,13866.328514
69610.146569,74.020594,-1776.494261,9729.412825
69610.146880,6957.935855,3627.009116,8810.098227
69610.147191,5921.647536,2812.782580,8044.002729
69610.147502,3849.070898,-1702.473667,8197.221829
69610.147813,1628.453072,-1184.329507,9039.926876
69610.148124,-148.041188,2294.638420,9652.803275
69610.148434,-2368.659014,3256.906145,12180.918418
69610.148745,-7105.977043,0.000000,14479.204912
69610.149056,-7031.956449,-3775.050304,13483.280765
69610.149367,-1776.494261,-1258.350101,10648.727422
69610.149678,3330.926739,2590.720797,7584.345430
69610.149989,5773.606348,4071.132681,7660.954980
69610.150300,3182.885551,592.164754,8886.707777
69610.150611,0.000000,-888.247130,9116.536426
69610.150922,1036.288319,2294.638420,9193.145976
69610.151233,740.205942,3108.864956,10189.070123
69610.151544,-4589.276840,-3404.947333,11491.432470
69610.151854,-8216.285956,-7402.059420,13406.671215
69610.152165,-4441.235652,-2368.659014,12180.918418
69610.152476,4219.173869,5181.441594,9422.974625
69610.152787,5551.544565,4145.153275,8733.488677
69610.153098,1998.556043,-1480.411884,7048.078582
69610.153409,740.205942,-1776.494261,8503.660028
69610.153720,1480.411884,2294.638420,10495.508323
69610.154031,-1776.494261,4737.318029,12257.527968
69610.154342,-5995.668130,-1406.391290,13330.061665
69610.154653,-9178.553681,-5773.606348,14019.547613
69610.154964,-4367.215058,-2738.761985,11874.480219
69610.155275,1628.453072,2072.576638,9882.631924
69610.155585,3256.906145,2220.617826,8503.660028
69610.155896,3404.947333,-592.164754,8503.660028
69610.156207,1702.473667,-1850.514855,9193.145976
69610.156518,0.000000,444.123565,9269.755526
69610.156829,222.061783,740.205942,10648.727422
69610.157140,-3627.009116,-1628.453072,11721.261119
69610.157451,-6883.915261,-4885.359217,12640.575717
69610.157762,-4959.379811,-3404.947333,13253.452115
69610.158073,814.226536,2294.638420,9806.022374
69610.158384,5329.482782,3404.947333,7814.174080
69610.158695,4885.359217,-592.164754,8580.269578
69610.159005,1776.494261,-1850.514855,7660.954980
69610.159316,3034.844362,2960.823768,8810.098227
69610.159627,2812.782580,4811.338623,10035.851024
69610.159938,-1924.535449,74.020594,11491.432470
69610.160249,-5699.585753,-3552.988522,12793.794817
69610.160560,-4737.318029,-2812.782580,13483.280765
69610.160871,1258.350101,1924.535449,11108.384721
69610.161182,5699.585753,3552.988522,8197.221829
69610.161493,4515.256246,0.000000,7354.516781
69610.161804,1184.329507,-1924.535449,7890.783629
69610.162115,222.061783,1628.453072,10342.289223
69610.162426,-666.185348,5033.400406,11414.822920
69610.162736,-4071.132681,-148.041188,13176.842566
69610.163047,-8216.285956,-6661.853478,13636.499864
69610.163358,-6661.853478,-3478.967927,12563.966167
69610.163669,2220.617826,3923.091493,10418.898773
69610.163980,4737.318029,2960.823768,8273.831378
69610.164291,3108.864956,-2664.741391,8044.002729
69610.164602,814.226536,-2960.823768,7890.783629
69610.164913,2072.576638,1776.494261,8044.002729
69610.165224,962.267725,4293.194464,11644.651570
69610.165535,-2146.597232,296.082377,12870.404366
69610.165846,-5107.421000,-4293.194464,12410.747068
69610.166157,-2886.803174,-4293.194464,11184.994271
69610.166467,3552.988522,1258.350101,9269.755526
69610.166778,6883.915261,4145.153275,7584.345430
69610.167089,4959.379811,444.123565,8273.831378
69610.167400,1332.370696,-1406.391290,9882.631924
69610.167711,1776.494261,1184.329507,8580.269578
69610.168022,1554.432478,3627.009116,9806.022374
69610.168333,-2738.761985,666.185348,12487.356617
69610.168644,-7031.956449,-3552.988522,15015.471761
69610.168955,-4737.318029,-4145.153275,13023.623466
69610.169266,1628.453072,-1184.329507,10112.460574
69610.169577,6957.935855,2072.576638,7048.078582
69610.169887,4811.338623,0.000000,7277.907231
69610.170198,1110.308913,-1554.432478,11184.994271
69610.170509,1998.556043,-518.144159,10648.727422
69610.170820,74.020594,1850.514855,9806.022374
69610.171131,-2220.617826,0.000000,11721.261119
69610.171442,-5403.503377,-2146.597232,13942.938064
69610.171753,-4959.379811,-2442.679609,13636.499864
69610.172064,-1554.432478,-592.164754,11031.775171
69610.172375,2886.803174,1702.473667,8197.221829
69610.172686,3330.926739,2368.659014,8197.221829
69610.172997,2072.576638,1924.535449,9806.022374
69610.173308,-962.267725,0.000000,10265.679673
69610.173618,0.000000,888.247130,9193.145976
69610.173929,0.000000,1480.411884,10495.508323
69610.174240,-4219.173869,-2220.617826,12104.308868
69610.174551,-4663.297435,-4811.338623,11951.089769
69610.174862,0.000000,-2146.597232,10035.851024
69610.175173,5921.647536,2886.803174,7354.516781
69610.175484,5847.626942,2072.576638,7431.126331
69610.175795,1406.391290,-518.144159,8503.660028
69610.176106,-148.041188,-814.226536,9959.241474
69610.176417,814.226536,3997.112087,10418.898773
69610.176728,-222.061783,4885.359217,11261.603821
69610.177038,-4219.173869,-1628.453072,13330.061665
69610.177349,-6513.812290,-5033.400406,13942.938064
69610.177660,-2442.679609,296.082377,11031.775171
69610.177971,4441.235652,3997.112087,9269.755526
69610.178282,3997.112087,1406.391290,8580.269578
69610.178593,740.205942,-1332.370696,9039.926876
69610.178904,1554.432478,296.082377,10035.851024
69610.179215,-1480.411884,1110.308913,10878.556072
69610.179526,-3552.988522,814.226536,12334.137518
69610.179837,-2960.823768,-1628.453072,12870.404366
69610.180148,-4367.215058,-4589.276840,11414.822920
69610.180459,-2368.659014,-2294.638420,10801.946522
69610.180769,3552.988522,3627.009116,9882.631924
69610.181080,5551.544565,2886.803174,7660.954980
69610.181391,2368.659014,-1110.308913,8656.879127
69610.181702,1332.370696,-1480.411884,9269.755526
69610.182013,-444.123565,1776.494261,9346.365076
69610.182324,-1628.453072,3701.029710,11721.261119
69610.182635,-2664.741391,0.000000,12793.794817
69610.182946,-4811.338623,-3701.029710,11874.480219
69610.183257,-1776.494261,-3775.050304,10342.289223
69610.183568,3478.967927,1036.288319,8503.660028
69610.183879,5181.441594,3552.988522,8273.831378
69610.184190,2368.659014,518.144159,8963.317327
69610.184500,-296.082377,-1184.329507,10648.727422
69610.184811,-2368.659014,888.247130,10955.165621
69610.185122,-1554.432478,2294.638420,11568.042020
69610.185433,-3330.926739,-1554.432478,12257.527968
69610.185744,-4737.318029,-5699.585753,12487.356617
69610.186055,-1036.288319,-2294.638420,11108.384721
69610.186366,4515.256246,2886.803174,8427.050478
69610.186677,7254.018232,3701.029710,7814.174080
69610.186988,4219.173869,-370.102971,7737.564530
69610.187299,222.061783,-2220.617826,10035.851024
69610.187610,-1850.514855,666.185348,12257.527968
69610.187920,-1258.350101,3256.906145,11951.089769
69610.188231,-1998.556043,-1036.288319,11951.089769
69610.188542,-4071.132681,-5551.544565,11184.994271
69610.188853,-1776.494261,-4293.194464,10495.508323
69610.189164,3849.070898,2072.576638,9346.365076
69610.189475,6217.729913,4515.256246,8120.612279
69610.189786,3923.091493,1332.370696,8810.098227
69610.190097,1480.411884,-1184.329507,9193.145976
69610.190408,-1702.473667,0.000000,10035.851024
69610.190719,-888.247130,3478.967927,11338.213370
69610.191030,-592.164754,0.000000,12104.308868
69610.191341,-4885.359217,-5847.626942,11491.432470
69610.191651,-3478.967927,-4663.297435,11414.822920
69610.191962,3923.091493,2368.659014,9806.022374
69610.192273,5921.647536,4219.173869,8044.002729
69610.192584,3923.091493,-666.185348,8810.098227
69610.192895,444.123565,-2590.720797,10112.460574
69610.193206,0.000000,814.226536,10342.289223
69610.193517,962.267725,3478.967927,11568.042020
69610.193828,-1924.535449,-962.267725,11951.089769
69610.194139,-4737.318029,-4885.359217,12487.356617
69610.194450,-3182.885551,-3478.967927,11797.870669
69610.194761,1924.535449,1480.411884,10112.460574
69610.195071,5181.441594,3478.967927,8044.002729
69610.195382,3627.009116,1998.556043,8656.879127
69610.195693,814.226536,-962.267725,9959.241474
69610.196004,-888.247130,-592.164754,11184.994271
69610.196315,-74.020594,814.226536,11261.603821
69610.196626,0.000000,148.041188,9959.241474
69610.196937,-2146.597232,-3849.070898,11414.822920
69610.197248,-3923.091493,-5699.585753,11031.775171
69610.197559,518.144159,740.205942,10495.508323
69610.197870,5847.626942,5625.565159,9422.974625
69610.198181,2812.782580,2146.597232,8886.707777
69610.198492,-1258.350101,-1702.473667,10265.679673
69610.198802,-962.267725,444.123565,10342.289223
69610.199113,-296.082377,3182.885551,10725.336972
69610.199424,-3034.844362,888.247130,12334.137518
69610.199735,-5773.606348,-3849.070898,13406.671215
69610.200046,-4589.276840,-4589.276840,12257.527968
69610.200357,1036.288319,0.000000,9116.536426
69610.200668,4737.318029,4145.153275,7967.393179
69610.200979,3034.844362,2442.679609,8886.707777
69610.201290,-148.041188,-1332.370696,10189.070123
69610.201601,-1184.329507,-518.144159,10112.460574
69610.201912,-296.082377,2368.659014,10189.070123
69610.202223,-1258.350101,1776.494261,10955.165621
69610.202534,-4515.256246,-2516.700203,12257.527968
69610.202845,-4811.338623,-5625.565159,12104.308868
69610.203156,-1480.411884,-1258.350101,9882.631924
69610.203467,3775.050304,3849.070898,7584.345430
69610.203777,4737.318029,3997.112087,8580.269578
69610.204088,148.041188,-888.247130,9882.631924
69610.204399,-1258.350101,-2220.617826,10265.679673
69610.204710,370.102971,1850.514855,9806.022374
69610.205021,-444.123565,2664.741391,10878.556072
69610.205332,-3478.967927,-1258.350101,11721.261119
69610.205643,-3552.988522,-3404.947333,12334.137518
69610.205954,-1332.370696,-1332.370696,10648.727422
69610.206265,2886.803174,2886.803174,8733.488677
69610.206576,2442.679609,2812.782580,8886.707777
69610.206887,-370.102971,-222.061783,9959.241474
69610.207198,-1702.473667,-370.102971,10801.946522
69610.207509,-1628.453072,1332.370696,10648.727422
69610.207820,-1702.473667,740.205942,11874.480219
69610.208131,-3330.926739,-2812.782580,12563.966167
69610.208442,-3775.050304,-4737.318029,11184.994271
69610.208753,1406.391290,-962.267725,9576.193725
69610.209064,6587.832884,4885.359217,8503.660028
69610.209375,5921.647536,2590.720797,8044.002729
69610.209686,2664.741391,-2146.597232,8427.050478
69610.209997,0.000000,-1776.494261,10572.117872
69610.210308,-444.123565,2516.700203,11261.603821
69610.210619,-2442.679609,3404.947333,12257.527968
69610.210930,-5625.565159,-1554.432478,13330.061665
69610.211241,-5403.503377,-5033.400406,12410.747068
69610.211552,-1258.350101,-2368.659014,10878.556072
69610.211863,2590.720797,2294.638420,8886.707777
69610.212173,4219.173869,3627.009116,9116.536426
69610.212484,3775.050304,1480.411884,9806.022374
69610.212795,1776.494261,-1258.350101,9039.926876
69610.213106,1036.288319,-740.205942,9269.755526
69610.213417,518.144159,1480.411884,9959.241474
69610.213728,-1036.288319,-1332.370696,12104.308868
69610.214039,-5329.482782,-5625.565159,13559.890315
69610.214350,-3256.906145,-4145.153275,11108.384721
69610.214661,4737.318029,2294.638420,9729.412825
69610.214972,6513.812290,3552.988522,8273.831378
69610.215283,3627.009116,1036.288319,8503.660028
69610.215594,1110.308913,-1776.494261,10265.679673
69610.215905,222.061783,1258.350101,10418.898773
69610.216216,1110.308913,3478.967927,10801.946522
69610.216527,-1628.453072,-666.185348,12104.308868
69610.216838,-5773.606348,-6587.832884,13023.623466
69610.217149,-1850.514855,-3627.009116,11491.432470
69610.217460,5551.544565,2294.638420,9422.974625
69610.217771,6143.709319,3034.844362,8273.831378
69610.218082,5921.647536,-666.185348,8810.098227
69610.218393,4885.359217,-1554.432478,8810.098227
69610.218704,3701.029710,962.267725,7431.126331
69610.219015,4663.297435,2812.782580,9422.974625
69610.219326,-1850.514855,0.000000,12563.966167
69610.219637,-7105.977043,-3701.029710,14709.033562
69610.219948,-5255.462188,-3182.885551,14402.595362
69610.220258,962.267725,1036.288319,9576.193725
69610.220569,4071.132681,3108.864956,8044.002729
69610.220880,2590.720797,148.041188,8886.707777
69610.221191,-1036.288319,-2072.576638,10265.679673
69610.221502,-2294.638420,-370.102971,10495.508323
69610.221813,-962.267725,2294.638420,11644.651570
69610.222124,-4219.173869,-740.205942,10725.336972
69610.222435,-6587.832884,-5033.400406,12563.966167
69610.222746,-3849.070898,-4959.379811,12870.404366
69610.223057,814.226536,-148.041188,8963.317327
69610.223368,5773.606348,1702.473667,7354.516781
69610.223679,3256.906145,-592.164754,6741.640382
69610.223990,444.123565,-518.144159,9269.755526
69610.224301,444.123565,2516.700203,11108.384721
69610.224612,-1850.514855,3775.050304,10725.336972
69610.224923,-2960.823768,518.144159,12027.699319
69610.225234,-3849.070898,-3627.009116,12027.699319
69610.225545,-2664.741391,-3997.112087,10112.460574
69610.225856,2960.823768,0.000000,9116.536426
69610.226167,6957.935855,3108.864956,7507.735880
69610.226478,5477.523971,1406.391290,7660.954980
69610.226789,2960.823768,-370.102971,9193.145976
69610.227100,-444.123565,518.144159,9269.755526
69610.227411,-2294.638420,2516.700203,11261.603821
69610.227722,-2738.761985,2960.823768,13942.938064
69610.228033,-5329.482782,-1110.308913,12793.794817
69610.228344,-5329.482782,-3478.967927,12334.137518
69610.228654,-370.102971,-666.185348,10342.289223
69610.228965,4441.235652,3627.009116,8350.440928
69610.229276,3034.844362,3256.906145,8656.879127
69610.229587,-740.205942,148.041188,10342.289223
69610.229898,-1924.535449,518.144159,11721.261119
69610.230209,-1850.514855,1406.391290,11951.089769
69610.230520,-3849.070898,666.185348,12870.404366
69610.230831,-3034.844362,-2886.803174,11721.261119
69610.231142,-4219.173869,-3627.009116,11874.480219
69610.231453,-222.061783,-3330.926739,8350.440928
69610.231764,3404.947333,1332.370696,8427.050478
69610.232075,5181.441594,2738.761985,7431.126331
69610.232386,1036.288319,592.164754,9346.365076
69610.232697,-1332.370696,-1554.432478,11338.213370
69610.233008,-3182.885551,1036.288319,9882.631924
69610.233319,-1184.329507,2960.823768,11491.432470
69610.233630,-1998.556043,-1036.288319,11951.089769
69610.233941,-2368.659014,-5329.482782,10725.336972
69610.234252,1110.308913,-4145.153275,9116.536426
69610.234563,6365.771101,1110.308913,7890.783629
69610.234874,6735.874072,1258.350101,7737.564530
69610.235185,2072.576638,-1702.473667,9806.022374
69610.235496,1406.391290,-1998.556043,10878.556072
69610.235807,1110.308913,370.102971,10189.070123
69610.236118,370.102971,888.247130,11261.603821
69610.236429,-2220.617826,-2960.823768,12257.527968
69610.236739,-2368.659014,-7031.956449,12257.527968
69610.237050,-592.164754,-4219.173869,10342.289223
69610.237361,6439.791695,2960.823768,8427.050478
69610.237672,8808.450710,5329.482782,9269.755526
69610.237983,4589.276840,962.267725,10495.508323
69610.238294,1702.473667,-2738.761985,11261.603821
69610.238605,2516.700203,-1332.370696,9959.241474
69610.238916,3627.009116,814.226536,9422.974625
69610.239227,592.164754,-222.061783,11951.089769
69610.239538,-3701.029710,-3923.091493,14325.985813
69610.239849,-2146.597232,-4885.359217,11338.213370
69610.240160,3552.988522,-4219.173869,8503.660028
69610.240471,4515.256246,-2368.659014,7814.174080
69610.240782,3849.070898,-1850.514855,10112.460574
69610.241093,2960.823768,-814.226536,11951.089769
69610.241404,2220.617826,-2072.576638,10878.556072
69610.241715,3330.926739,-4885.359217,8656.879127
69610.242026,2590.720797,-5699.585753,8810.098227
69610.242337,296.082377,-3997.112087,11338.213370
69610.242648,2146.597232,-2294.638420,13176.842566
69610.242959,4219.173869,-4145.153275,9806.022374
69610.243270,5625.565159,-6661.853478,9116.536426
69610.243581,7254.018232,-5551.544565,8044.002729
69610.243892,7105.977043,-3775.050304,9116.536426
69610.244203,4885.359217,-2738.761985,11338.213370
69610.244514,5255.462188,-2516.700203,11491.432470
69610.244825,5699.585753,-2442.679609,9269.755526
69610.245135,3404.947333,-4811.338623,9576.193725
69610.245446,962.267725,-4885.359217,11338.213370
69610.245757,-148.041188,-2442.679609,11568.042020
69610.246068,1924.535449,-2072.576638,11951.089769
69610.246379,2368.659014,-3256.906145,11261.603821
69610.246690,2960.823768,-2886.803174,10265.679673
69610.247001,5477.523971,-2072.576638,9116.536426
69610.247312,6661.853478,-2960.823768,9576.193725
69610.247623,6365.771101,-4219.173869,9269.755526
69610.247934,6365.771101,-6217.729913,8886.707777
69610.248245,4441.235652,-7179.997637,10035.851024
69610.248556,2590.720797,-5551.544565,10418.898773
69610.248867,4145.153275,-3182.885551,10955.165621
69610.249178,4293.194464,-2516.700203,10342.289223
69610.249489,3627.009116,-2368.659014,10112.460574
69610.249800,5255.462188,0.000000,9806.022374
69610.250111,2664.741391,0.000000,10035.851024
69610.250422,0.000000,-1036.288319,11951.089769
69610.250733,814.226536,-444.123565,11261.603821
69610.251044,888.247130,-2146.597232,10572.117872
69610.251355,-1332.370696,-5773.606348,11721.261119
69610.251666,-222.061783,-6587.832884,11491.432470
69610.251977,3627.009116,-4663.297435,10035.851024
69610.252288,6809.894666,-5255.462188,8733.488677
69610.252599,7402.059420,-5625.565159,7660.954980
69610.252910,9178.553681,-4737.318029,7354.516781
69610.253220,7105.977043,-3775.050304,8580.269578
69610.253531,4589.276840,-2960.823768,10418.898773
69610.253842,2960.823768,-1998.556043,10878.556072
69610.254153,888.247130,-1628.453072,11414.822920
69610.254464,-1406.391290,-1628.453072,12793.794817
69610.254775,-1110.308913,-1332.370696,12870.404366
69610.255086,0.000000,-888.247130,11951.089769
69610.255397,1480.411884,-1554.432478,11568.042020
69610.255708,3182.885551,-2220.617826,10112.460574
69610.256019,4737.318029,-2960.823768,9806.022374
69610.256330,4663.297435,-4145.153275,9116.536426
69610.256641,3775.050304,-5107.421000,10265.679673
69610.256952,4219.173869,-5329.482782,9576.193725
69610.257263,4367.215058,-5551.544565,9422.974625
69610.257574,4219.173869,-5625.565159,9652.803275
69610.257885,3775.050304,-4293.194464,9652.803275
69610.258196,4145.153275,-1998.556043,9806.022374
69610.258507,3552.988522,-740.205942,9729.412825
69610.258818,2294.638420,-666.185348,9652.803275
69610.259129,1110.308913,1702.473667,9806.022374
69610.259440,0.000000,1036.288319,11644.651570
69610.259751,-3034.844362,-1258.350101,11951.089769
69610.260062,-3256.906145,-1998.556043,12104.308868
69610.260373,-1406.391290,-1850.514855,11338.213370
69610.260684,148.041188,-2886.803174,10495.508323
69610.260995,1554.432478,-4145.153275,9116.536426
69610.261306,2294.638420,-4219.173869,8503.660028
69610.261616,4441.235652,-1924.535449,8044.002729
69610.261927,4145.153275,-2072.576638,9806.022374
69610.262238,1628.453072,-2738.761985,10112.460574
69610.262549,962.267725,-3330.926739,10648.727422
69610.262860,666.185348,-3552.988522,10035.851024
69610.263171,-296.082377,-3256.906145,10648.727422
69610.263482,-444.123565,-2664.741391,10955.165621
69610.263793,0.000000,-1924.535449,11414.822920
69610.264104,296.082377,-1776.494261,10955.165621
69610.264415,2294.638420,-3552.988522,10648.727422
69610.264726,1184.329507,-3256.906145,9269.755526
69610.265037,2220.617826,-2886.803174,11184.994271
69610.265348,3108.864956,-3404.947333,11951.089769
69610.265659,2294.638420,-5699.585753,10342.289223
69610.265970,2812.782580,-6513.812290,10112.460574
69610.266281,5329.482782,-5477.523971,9806.022374
69610.266592,4737.318029,-5403.503377,9576.193725
69610.266903,2960.823768,-6809.894666,10265.679673
69610.267214,3923.091493,-6143.709319,10265.679673
69610.267525,5551.544565,-3997.112087,9959.241474
69610.267836,5477.523971,-3330.926739,10265.679673
69610.268147,4515.256246,-3701.029710,10418.898773
69610.268458,5181.441594,-4071.132681,10035.851024
69610.268769,5403.503377,-2442.679609,10342.289223
69610.269080,4737.318029,-2738.761985,10189.070123
69610.269391,4441.235652,-3182.885551,10418.898773
69610.269701,4145.153275,-3330.926739,11031.775171
69610.270012,2442.679609,-3997.112087,11797.870669
69610.270323,4071.132681,-3849.070898,11491.432470
69610.270634,5773.606348,-4145.153275,10035.851024
69610.270945,6291.750507,-4441.235652,9806.022374
69610.271256,7994.224174,-3478.967927,9882.631924
69610.271567,8734.430116,-3552.988522,8886.707777
69610.271878,8364.327145,-3552.988522,9269.755526
69610.272189,7476.080014,-3034.844362,9882.631924
69610.272500,6735.874072,-1776.494261,9882.631924
69610.272811,4885.359217,-2442.679609,11031.775171
69610.273122,2960.823768,-3997.112087,12104.308868
69610.273433,3923.091493,-4441.235652,11338.213370
69610.273744,4367.215058,-4737.318029,11721.261119
69610.274055,5329.482782,-3701.029710,12563.966167
69610.274366,8290.306550,-2220.617826,10648.727422
69610.274677,9548.656652,-2220.617826,9269.755526
69610.274988,8660.409521,-3108.864956,9422.974625
69610.275299,8660.409521,-3701.029710,9806.022374
69610.275610,5551.544565,-3330.926739,10495.508323
69610.275921,3701.029710,-2590.720797,11797.870669
69610.276232,4441.235652,-888.247130,11721.261119
69610.276543,4071.132681,-1406.391290,10265.679673
69610.276854,3256.906145,-2664.741391,9116.536426
69610.277165,3775.050304,-2516.700203,10572.117872
69610.277476,3997.112087,-2960.823768,10035.851024
69610.277787,3478.967927,-1998.556043,9116.536426
69610.278097,4515.256246,-1628.453072,10112.460574
69610.278408,4367.215058,-2368.659014,9576.193725
69610.278719,3923.091493,-1924.535449,9882.631924
69610.279030,4515.256246,-4515.256246,9116.536426
69610.279341,2738.761985,-4071.132681,9806.022374
69610.279652,3256.906145,148.041188,9346.365076
69610.279963,3552.988522,2368.659014,10418.898773
69610.280274,-814.226536,1110.308913,11721.261119
69610.280585,-3478.967927,-2146.597232,10955.165621
69610.280896,-2664.741391,-1332.370696,11261.603821
69610.281207,-3775.050304,-1036.288319,11797.870669
69610.281518,-2738.761985,-740.205942,12104.308868
69610.281829,-1998.556043,-296.082377,11184.994271
69610.282140,0.000000,-1702.473667,9959.241474
69610.282451,962.267725,-3478.967927,8733.488677
69610.282762,222.061783,-4737.318029,8810.098227
69610.283073,-74.020594,-3478.967927,11031.775171
69610.283384,222.061783,-2960.823768,10418.898773
69610.283695,666.185348,-2738.761985,9039.926876
69610.284006,-1406.391290,-4293.194464,9422.974625
69610.284317,-4367.215058,-4441.235652,11184.994271
69610.284628,-3923.091493,-666.185348,12717.185267
69610.284939,-1776.494261,3108.864956,11797.870669
69610.285250,814.226536,1776.494261,10112.460574
69610.285561,1110.308913,-1332.370696,8120.612279
69610.285872,-518.144159,-888.247130,8733.488677
69610.286182,-1628.453072,2886.803174,10265.679673
69610.286493,-888.247130,3701.029710,11414.822920
69610.286804,-4071.132681,0.000000,11568.042020
69610.287115,-7179.997637,-4811.338623,10572.117872
69610.287426,-5107.421000,-5699.585753,10572.117872
69610.287737,-2886.803174,-814.226536,10725.336972
69610.288048,1110.308913,2368.659014,10418.898773
69610.288359,3256.906145,74.020594,8733.488677
69610.288670,1776.494261,-2738.761985,7048.078582
69610.288981,2590.720797,1332.370696,7277.907231
69610.289292,2516.700203,6439.791695,8580.269578
69610.289603,-3182.885551,5107.421000,12180.918418
69610.289914,-8808.450710,814.226536,14096.157163
69610.290225,-8512.368333,-444.123565,14172.766713
69610.290536,-3701.029710,2146.597232,11184.994271
69610.290847,-296.082377,2590.720797,10112.460574
69610.291158,666.185348,1628.453072,9499.584175
69610.291469,2072.576638,-296.082377,8886.707777
69610.291780,2590.720797,444.123565,8503.660028
69610.292091,2220.617826,2738.761985,9116.536426
69610.292402,518.144159,1998.556043,10342.289223
69610.292713,-3552.988522,-3478.967927,12947.013916
69610.293024,-4737.318029,-5699.585753,12563.966167
69610.293335,814.226536,-3330.926739,10189.070123
69610.293646,3627.009116,-962.267725,8503.660028
69610.293957,4293.194464,0.000000,9499.584175
69610.294268,5181.441594,666.185348,9806.022374
69610.294578,4737.318029,2738.761985,8733.488677
69610.294889,5477.523971,4367.215058,8656.879127
69610.295200,3701.029710,3182.885551,10265.679673
69610.295511,-4145.153275,-296.082377,12180.918418
69610.295822,-6291.750507,-2368.659014,14632.424012
69610.296133,-1924.535449,740.205942,14325.985813
69610.296444,444.123565,740.205942,11184.994271
69610.296755,2072.576638,-2368.659014,10112.460574
69610.297066,5033.400406,-3330.926739,7737.564530
69610.297377,6957.935855,1258.350101,6818.249932
69610.297688,7476.080014,4737.318029,8580.269578
69610.297999,4737.318029,1850.514855,10265.679673
69610.298310,-962.267725,-3923.091493,11491.432470
69610.298621,-3256.906145,-6143.709319,12180.918418
69610.298932,-1480.411884,-3849.070898,12104.308868
69610.299243,74.020594,518.144159,11721.261119
69610.299554,3404.947333,1776.494261,11951.089769
69610.299865,4071.132681,-1406.391290,9269.755526
69610.300176,3627.009116,-1554.432478,7354.516781
69610.300487,6069.688724,2960.823768,7967.393179
69610.300798,3034.844362,4515.256246,9882.631924
69610.301109,-3997.112087,-1702.473667,13866.328514
69610.301420,-8290.306550,-6291.750507,14172.766713
69610.301731,-5033.400406,-2738.761985,12257.527968
69610.302042,0.000000,296.082377,10112.460574
69610.302353,1702.473667,-1850.514855,9806.022374
69610.302663,740.205942,-3849.070898,8350.440928
69610.302974,2960.823768,-1110.308913,8197.221829
69610.303285,6735.874072,2812.782580,7967.393179
69610.303596,3330.926739,1776.494261,8197.221829
69610.303907,-1036.288319,-1184.329507,9422.974625
69610.304218,-3182.885551,-2960.823768,11338.213370
69610.304529,-4737.318029,-1702.473667,12334.137518
69610.304840,-2368.659014,740.205942,12334.137518
69610.305151,0.000000,444.123565,11338.213370
69610.305462,1110.308913,-1554.432478,10265.679673
69610.305773,4441.235652,222.061783,8197.221829
69610.306084,6143.709319,4367.215058,7967.393179
69610.306395,4145.153275,5847.626942,8580.269578
69610.306706,74.020594,2738.761985,11338.213370
69610.307017,-5921.647536,-2738.761985,12870.404366
69610.307328,-8142.265362,-2886.803174,12410.747068
69610.307639,-3108.864956,1554.432478,11797.870669
69610.307950,-1702.473667,2220.617826,12563.966167
69610.308261,-2146.597232,0.000000,11951.089769
69610.308572,1406.391290,-444.123565,8350.440928
69610.308883,3775.050304,3404.947333,6588.421283
69610.309194,3627.009116,5329.482782,8580.269578
69610.309505,-148.041188,3034.844362,11108.384721
69610.309816,-6883.915261,-1554.432478,13023.623466
69610.310127,-8068.244768,-2368.659014,13866.328514
69610.310438,-4737.318029,-666.185348,11338.213370
69610.310749,-3552.988522,-666.185348,10878.556072
69610.311061,-2516.700203,-2960.823768,11184.994271
69610.311372,-74.020594,-2442.679609,9729.412825
69610.311683,2368.659014,2442.679609,7814.174080
69610.311994,6143.709319,5329.482782,7354.516781
69610.312305,2368.659014,1184.329507,7584.345430
69610.312616,-4959.379811,-4293.194464,10572.117872
69610.312927,-5107.421000,-3478.967927,12334.137518
69610.313238,-1702.473667,1332.370696,11338.213370
69610.313549,222.061783,1998.556043,10572.117872
69610.313860,370.102971,-2368.659014,10342.289223
69610.314171,296.082377,-2886.803174,9039.926876
69610.314482,3849.070898,1702.473667,8197.221829
69610.314793,6513.812290,5773.606348,8197.221829
69610.315104,2294.638420,3034.844362,9346.365076
69610.315415,-1628.453072,-3034.844362,11031.775171
69610.315726,-2368.659014,-3849.070898,11568.042020
69610.316037,-2886.803174,-1406.391290,12027.699319
69610.316348,-1110.308913,-444.123565,12257.527968
69610.316659,444.123565,-962.267725,11797.870669
69610.316970,666.185348,-2072.576638,9806.022374
69610.317281,5551.544565,888.247130,8197.221829
69610.317592,6291.750507,3034.844362,7660.954980
69610.317903,1702.473667,1332.370696,10878.556072
69610.318214,-2072.576638,-1776.494261,13483.280765
69610.318525,-4219.173869,-2442.679609,12180.918418
69610.318836,-3923.091493,222.061783,11951.089769
69610.319147,-740.205942,2220.617826,11951.089769
69610.319458,296.082377,0.000000,10955.165621
69610.319769,-444.123565,-1110.308913,10265.679673
69610.320080,3701.029710,1184.329507,9346.365076
69610.320391,4885.359217,3478.967927,7814.174080
69610.320702,3849.070898,2220.617826,8656.879127
69610.321013,1776.494261,-2294.638420,10955.165621
69610.321324,-2664.741391,-4885.359217,10725.336972
69610.321635,-1776.494261,-2960.823768,11261.603821
69610.321946,1480.411884,296.082377,10572.117872
69610.322257,2146.597232,-888.247130,9806.022374
69610.322568,962.267725,-3404.947333,10035.851024
69610.322879,3478.967927,-888.247130,8427.050478
69610.323190,5773.606348,5255.462188,8273.831378
69610.323501,4145.153275,4959.379811,9499.584175
69610.323812,-3256.906145,-1258.350101,11951.089769
69610.324123,-6809.894666,-3627.009116,12640.575717
69610.324434,-3552.988522,1184.329507,12027.699319
69610.324745,-1480.411884,3775.050304,12563.966167
69610.325056,-1036.288319,666.185348,12027.699319
69610.325367,1258.350101,-4219.173869,9039.926876
69610.325678,2590.720797,-1776.494261,6665.030833
69610.325989,5847.626942,3256.906145,7890.783629
69610.326300,5033.400406,3701.029710,8810.098227
69610.326611,-2368.659014,-148.041188,11491.432470
69610.326922,-4737.318029,-4663.297435,12947.013916
69610.327233,-2738.761985,-2886.803174,12180.918418
69610.327544,-1850.514855,0.000000,10342.289223
69610.327855,444.123565,888.247130,11261.603821
69610.328166,592.164754,0.000000,10801.946522
69610.328477,1036.288319,-740.205942,9039.926876
69610.328788,3923.091493,1184.329507,7890.783629
69610.329099,3256.906145,2664.741391,8044.002729
69610.329410,-888.247130,888.247130,9959.241474
69610.329721,-5847.626942,-2886.803174,12793.794817
69610.330032,-5847.626942,-2368.659014,13483.280765
69610.330343,-2442.679609,888.247130,11261.603821
69610.330654,-444.123565,74.020594,10189.070123
69610.330965,-444.123565,-3552.988522,9882.631924
69610.331276,592.164754,-1702.473667,9039.926876
