#time,accel_x,accel_y,accel_z
69849.725329,-296.082377,0.000000,10342.289223
69849.725641,148.041188,148.041188,10342.289223
69849.725952,0.000000,296.082377,10418.898773
69849.726263,222.061783,-518.144159,10955.165621
69849.726574,74.020594,0.000000,10189.070123
69849.726885,74.020594,666.185348,10725.336972
69849.727196,0.000000,74.020594,10265.679673
69849.727507,0.000000,0.000000,10418.898773
69849.727818,296.082377,0.000000,10112.460574
69849.728129,0.000000,0.000000,10112.460574
69849.728440,0.000000,0.000000,10342.289223
69849.728752,0.000000,222.061783,10725.336972
69849.729063,0.000000,296.082377,9882.631924
69849.729374,74.020594,-222.061783,10189.070123
69849.729685,74.020594,0.000000,10418.898773
69849.729996,0.000000,-74.020594,10342.289223
69849.730307,0.000000,0.000000,10265.679673
69849.730618,370.102971,74.020594,10265.679673
69849.730929,0.000000,0.000000,10495.508323
69849.731240,0.000000,-148.041188,10265.679673
69849.731551,-222.061783,0.000000,10189.070123
69849.731863,148.041188,0.000000,10189.070123
69849.732174,148.041188,0.000000,9959.241474
69849.732485,74.020594,-74.020594,10112.460574
69849.732796,296.082377,370.102971,10418.898773
69849.733107,0.000000,-740.205942,10648.727422
69849.733418,148.041188,0.000000,10801.946522
69849.733729,148.041188,0.000000,10035.851024
69849.734040,740.205942,666.185348,9576.193725
69849.734351,148.041188,0.000000,10418.898773
69849.734662,-222.061783,0.000000,10418.898773
69849.734974,0.000000,0.000000,10189.070123
69849.735285,222.061783,0.000000,10342.289223
69849.735596,222.061783,444.123565,10725.336972
69849.735907,-74.020594,0.000000,10112.460574
69849.736218,74.020594,222.061783,10342.289223
69849.736529,0.000000,148.041188,10189.070123
69849.736840,222.061783,370.102971,10342.289223
69849.737151,296.082377,0.000000,9882.631924
69849.737462,0.000000,-148.041188,10418.898773
69849.737773,74.020594,0.000000,10648.727422
69849.738085,148.041188,296.082377,10112.460574
69849.738396,592.164754,0.000000,10265.679673
69849.738707,-370.102971,-222.061783,9806.022374
69849.739018,0.000000,222.061783,10189.070123
69849.739329,0.000000,0.000000,10418.898773
69849.739640,0.000000,0.000000,11031.775171
69849.739951,0.000000,0.000000,10418.898773
69849.740262,74.020594,0.000000,9729.412825
69849.740573,222.061783,-370.102971,10342.289223
69849.740884,148.041188,-296.082377,10342.289223
69849.741196,0.000000,74.020594,10265.679673
69849.741507,444.123565,-148.041188,11031.775171
69849.741818,74.020594,0.000000,10035.851024
69849.742129,-814.226536,-74.020594,10495.508323
69849.742440,74.020594,-74.020594,10418.898773
69849.742751,0.000000,148.041188,10112.460574
69849.743062,518.144159,0.000000,10572.117872
69849.743373,0.000000,0.000000,10342.289223
69849.743684,-148.041188,0.000000,10342.289223
69849.743995,0.000000,0.000000,10112.460574
69849.744307,148.041188,518.144159,10189.070123
69849.744618,0.000000,-74.020594,10035.851024
69849.744929,0.000000,0.000000,10112.460574
69849.745240,296.082377,74.020594,10572.117872
69849.745551,74.020594,0.000000,10112.460574
69849.745862,0.000000,518.144159,10265.679673
69849.746173,148.041188,0.000000,10112.460574
69849.746484,0.000000,0.000000,10495.508323
69849.746795,0.000000,74.020594,10265.679673
69849.747106,0.000000,0.000000,10801.946522
69849.747418,296.082377,296.082377,9882.631924
69849.747729,-296.082377,222.061783,9806.022374
69849.748040,222.061783,0.000000,10801.946522
69849.748351,0.000000,0.000000,10495.508323
69849.748662,518.144159,74.020594,10648.727422
69849.748973,0.000000,0.000000,10265.679673
69849.749284,0.000000,0.000000,10189.070123
69849.749595,148.041188,0.000000,10265.679673
69849.749906,0.000000,0.000000,10265.679673
69849.750217,74.020594,-370.102971,10112.460574
69849.750529,74.020594,0.000000,10418.898773
69849.750840,296.082377,74.020594,10418.898773
69849.751151,-148.041188,74.020594,10265.679673
69849.751462,444.123565,0.000000,11108.384721
69849.751773,148.041188,148.041188,10265.679673
69849.752084,0.000000,0.000000,9959.241474
69849.752395,0.000000,0.000000,10342.289223
69849.752706,-148.041188,0.000000,10495.508323
69849.753017,222.061783,0.000000,10342.289223
69849.753328,296.082377,148.041188,10189.070123
69849.753640,74.020594,0.000000,10112.460574
69849.753951,0.000000,0.000000,10572.117872
69849.754262,0.000000,518.144159,10418.898773
69849.754573,296.082377,0.000000,11108.384721
69849.754884,0.000000,0.000000,10112.460574
69849.755195,222.061783,0.000000,10342.289223
69849.755506,0.000000,0.000000,10265.679673
69849.755817,0.000000,370.102971,10495.508323
69849.756128,148.041188,0.000000,10112.460574
69849.756439,0.000000,0.000000,10265.679673
69849.756751,74.020594,-148.041188,10342.289223
69849.757062,0.000000,0.000000,9959.241474
69849.757373,-296.082377,296.082377,10725.336972
69849.757684,0.000000,0.000000,10112.460574
69849.757995,-592.164754,-518.144159,11031.775171
69849.758306,-296.082377,-296.082377,10572.117872
69849.758617,-518.144159,74.020594,10265.679673
69849.758928,296.082377,74.020594,10342.289223
69849.759239,0.000000,0.000000,10265.679673
69849.759550,-222.061783,0.000000,10265.679673
69849.759862,0.000000,-222.061783,10342.289223
69849.760173,592.164754,-518.144159,10112.460574
69849.760484,518.144159,-296.082377,10189.070123
69849.760795,-296.082377,-296.082377,10112.460574
69849.761106,74.020594,0.000000,10495.508323
69849.761417,222.061783,296.082377,10878.556072
69849.761728,0.000000,0.000000,10189.070123
69849.762039,0.000000,-296.082377,10035.851024
69849.762350,0.000000,0.000000,10265.679673
69849.762661,0.000000,148.041188,10418.898773
69849.762973,148.041188,444.123565,10342.289223
69849.763284,0.000000,0.000000,10495.508323
69849.763595,296.082377,0.000000,10265.679673
69849.763906,-148.041188,0.000000,10265.679673
69849.764217,0.000000,74.020594,10342.289223
69849.764528,0.000000,74.020594,10418.898773
69849.764839,0.000000,74.020594,10495.508323
69849.765150,148.041188,-296.082377,10265.679673
69849.765461,148.041188,-222.061783,10035.851024
69849.765772,222.061783,222.061783,9806.022374
69849.766084,296.082377,74.020594,9882.631924
69849.766395,-296.082377,444.123565,10725.336972
69849.766706,-74.020594,74.020594,10572.117872
69849.767017,148.041188,74.020594,10495.508323
69849.767328,0.000000,74.020594,10418.898773
69849.767639,-148.041188,148.041188,10648.727422
69849.767950,0.000000,0.000000,10418.898773
69849.768261,222.061783,0.000000,10265.679673
69849.768572,0.000000,-148.041188,10342.289223
69849.768883,0.000000,-222.061783,10265.679673
69849.769195,370.102971,-222.061783,10035.851024
69849.769506,0.000000,0.000000,10112.460574
69849.769817,0.000000,-296.082377,10495.508323
69849.770128,296.082377,-74.020594,10342.289223
69849.770439,0.000000,370.102971,10265.679673
69849.770750,-148.041188,-222.061783,10265.679673
69849.771061,-222.061783,0.000000,10112.460574
69849.771372,222.061783,296.082377,10801.946522
69849.771683,222.061783,148.041188,10495.508323
69849.771994,0.000000,222.061783,10418.898773
69849.772306,0.000000,0.000000,10189.070123
69849.772617,222.061783,0.000000,10112.460574
69849.772928,592.164754,370.102971,10265.679673
69849.773239,296.082377,0.000000,10801.946522
69849.773550,74.020594,222.061783,10648.727422
69849.773861,0.000000,-296.082377,10265.679673
69849.774172,74.020594,0.000000,9499.584175
69849.774483,0.000000,0.000000,10265.679673
69849.774794,0.000000,0.000000,10495.508323
69849.775105,148.041188,222.061783,10342.289223
69849.775417,0.000000,296.082377,10342.289223
69849.775728,222.061783,-518.144159,9806.022374
69849.776039,0.000000,74.020594,9806.022374
69849.776350,592.164754,148.041188,10801.946522
69849.776661,0.000000,222.061783,10342.289223
69849.776972,-148.041188,0.000000,10418.898773
69849.777283,0.000000,-148.041188,10648.727422
69849.777594,0.000000,-148.041188,10572.117872
69849.777905,222.061783,0.000000,10189.070123
69849.778216,0.000000,0.000000,10189.070123
69849.778528,-148.041188,-370.102971,11108.384721
69849.778839,592.164754,-592.164754,10112.460574
69849.779150,666.185348,-222.061783,10035.851024
69849.779461,74.020594,-370.102971,9729.412825
69849.779772,0.000000,148.041188,10265.679673
69849.780083,0.000000,0.000000,10265.679673
69849.780394,222.061783,0.000000,10189.070123
69849.780705,74.020594,74.020594,10035.851024
69849.781016,74.020594,0.000000,10112.460574
69849.781327,0.000000,0.000000,9959.241474
69849.781638,-666.185348,0.000000,10725.336972
69849.781949,0.000000,-296.082377,10878.556072
69849.782260,296.082377,-370.102971,10112.460574
69849.782571,0.000000,0.000000,10265.679673
69849.782882,740.205942,0.000000,10725.336972
69849.783193,74.020594,-222.061783,10648.727422
69849.783504,222.061783,-222.061783,10035.851024
69849.783815,370.102971,0.000000,9729.412825
69849.784126,222.061783,74.020594,10495.508323
69849.784437,-370.102971,444.123565,9882.631924
69849.784748,0.000000,370.102971,10265.679673
69849.785059,518.144159,74.020594,10955.165621
69849.785370,-444.123565,0.000000,10112.460574
69849.785681,148.041188,222.061783,10418.898773
69849.785992,-444.123565,0.000000,10572.117872
69849.786303,0.000000,0.000000,10418.898773
69849.786613,148.041188,-222.061783,10265.679673
69849.786924,0.000000,-222.061783,10418.898773
69849.787235,148.041188,-296.082377,10189.070123
69849.787546,74.020594,0.000000,10495.508323
69849.787857,74.020594,0.000000,10342.289223
69849.788168,296.082377,222.061783,10112.460574
69849.788479,444.123565,370.102971,10189.070123
69849.788790,592.164754,-74.020594,10342.289223
69849.789101,0.000000,296.082377,10342.289223
69849.789412,0.000000,518.144159,10418.898773
69849.789723,74.020594,0.000000,10112.460574
69849.790034,0.000000,148.041188,10418.898773
69849.790345,-370.102971,-148.041188,10572.117872
69849.790656,-148.041188,0.000000,10648.727422
69849.790967,296.082377,0.000000,10035.851024
69849.791278,148.041188,-222.061783,9576.193725
69849.791589,0.000000,-444.123565,9806.022374
69849.791900,0.000000,148.041188,10342.289223
69849.792211,444.123565,-592.164754,10495.508323
69849.792522,296.082377,0.000000,9806.022374
69849.792833,74.020594,148.041188,10342.289223
69849.793144,-148.041188,0.000000,10495.508323
69849.793455,0.000000,74.020594,10648.727422
69849.793766,-148.041188,74.020594,10342.289223
69849.794077,0.000000,0.000000,10572.117872
69849.794388,0.000000,-814.226536,10572.117872
69849.794699,-518.144159,-148.041188,10112.460574
69849.795010,0.000000,74.020594,11031.775171
69849.795321,222.061783,0.000000,10265.679673
69849.795632,370.102971,222.061783,10035.851024
69849.795943,0.000000,-222.061783,10265.679673
69849.796253,444.123565,74.020594,10112.460574
69849.796564,296.082377,0.000000,10112.460574
69849.796875,-222.061783,-222.061783,10495.508323
69849.797186,-296.082377,0.000000,10418.898773
69849.797497,-444.123565,74.020594,9729.412825
69849.797808,148.041188,222.061783,10265.679673
69849.798119,-148.041188,0.000000,10342.289223
69849.798430,0.000000,74.020594,10725.336972
69849.798741,74.020594,0.000000,10342.289223
69849.799052,0.000000,-148.041188,10035.851024
69849.799363,74.020594,-148.041188,10189.070123
69849.799674,0.000000,0.000000,10265.679673
69849.799985,-74.020594,-148.041188,10342.289223
69849.800296,0.000000,-444.123565,9806.022374
69849.800607,0.000000,0.000000,9269.755526
69849.800918,0.000000,0.000000,10035.851024
69849.801229,296.082377,148.041188,10878.556072
69849.801540,74.020594,0.000000,10265.679673
69849.801851,0.000000,0.000000,10418.898773
69849.802162,148.041188,148.041188,10342.289223
69849.802473,222.061783,296.082377,10418.898773
69849.802784,0.000000,74.020594,10035.851024
69849.803095,-370.102971,0.000000,10418.898773
69849.803406,296.082377,0.000000,10189.070123
69849.803717,74.020594,0.000000,10418.898773
69849.804028,-148.041188,-296.082377,10418.898773
69849.804339,-296.082377,-74.020594,10725.336972
69849.804650,0.000000,370.102971,10725.336972
69849.804961,0.000000,222.061783,9959.241474
69849.805272,222.061783,0.000000,10189.070123
69849.805582,74.020594,0.000000,10189.070123
69849.805893,0.000000,0.000000,10495.508323
69849.806204,74.020594,148.041188,10342.289223
69849.806515,74.020594,0.000000,10112.460574
69849.806826,0.000000,74.020594,10342.289223
69849.807137,0.000000,296.082377,10878.556072
69849.807448,0.000000,0.000000,10112.460574
69849.807759,0.000000,-296.082377,10342.289223
69849.808070,370.102971,0.000000,10265.679673
69849.808381,-222.061783,0.000000,10495.508323
69849.808692,148.041188,0.000000,10495.508323
69849.809003,0.000000,-222.061783,10342.289223
69849.809314,296.082377,-222.061783,10035.851024
69849.809625,370.102971,0.000000,10265.679673
69849.809936,148.041188,148.041188,10725.336972
69849.810247,0.000000,0.000000,10112.460574
69849.810558,-74.020594,0.000000,10725.336972
69849.810869,74.020594,0.000000,10112.460574
69849.811180,0.000000,-444.123565,10418.898773
69849.811491,0.000000,-148.041188,10418.898773
69849.811802,0.000000,0.000000,10265.679673
69849.812113,0.000000,0.000000,10418.898773
69849.812424,296.082377,0.000000,10418.898773
69849.812735,0.000000,-74.020594,10648.727422
69849.813046,222.061783,-296.082377,9882.631924
69849.813357,148.041188,0.000000,10265.679673
69849.813668,148.041188,74.020594,10035.851024
69849.813979,0.000000,296.082377,10189.070123
69849.814290,74.020594,222.061783,10495.508323
69849.814601,-296.082377,0.000000,10418.898773
69849.814912,0.000000,0.000000,10189.070123
69849.815222,222.061783,148.041188,10189.070123
69849.815533,-222.061783,0.000000,10955.165621
69849.815844,0.000000,0.000000,9959.241474
69849.816155,0.000000,74.020594,10342.289223
69849.816466,148.041188,0.000000,10112.460574
69849.816777,74.020594,-222.061783,10342.289223
69849.817088,0.000000,0.000000,10418.898773
69849.817399,0.000000,0.000000,10495.508323
69849.817710,74.020594,0.000000,10418.898773
69849.818021,0.000000,148.041188,10265.679673
69849.818332,-370.102971,222.061783,10725.336972
69849.818643,148.041188,-222.061783,10878.556072
69849.818954,222.061783,0.000000,10342.289223
69849.819265,0.000000,296.082377,9806.022374
69849.819576,0.000000,148.041188,10418.898773
69849.819887,0.000000,0.000000,10572.117872
69849.820198,0.000000,0.000000,10342.289223
69849.820509,148.041188,-222.061783,10189.070123
69849.820820,0.000000,0.000000,10112.460574
69849.821131,0.000000,148.041188,10801.946522
69849.821442,0.000000,74.020594,10418.898773
69849.821753,0.000000,0.000000,10189.070123
69849.822064,74.020594,0.000000,10265.679673
69849.822375,296.082377,0.000000,10189.070123
69849.822686,74.020594,592.164754,10801.946522
69849.822997,0.000000,-296.082377,10342.289223
69849.823308,-148.041188,296.082377,10418.898773
69849.823619,0.000000,0.000000,10265.679673
69849.823930,0.000000,0.000000,10418.898773
69849.824241,148.041188,0.000000,10342.289223
69849.824551,0.000000,-222.061783,10418.898773
69849.824862,0.000000,0.000000,10418.898773
69849.825173,0.000000,0.000000,10342.289223
69849.825484,0.000000,74.020594,10878.556072
69849.825795,148.041188,-148.041188,10342.289223
69849.826106,-370.102971,148.041188,10418.898773
69849.826417,0.000000,0.000000,10572.117872
69849.826728,148.041188,0.000000,10112.460574
69849.827039,222.061783,0.000000,10189.070123
69849.827350,0.000000,0.000000,10495.508323
69849.827661,0.000000,0.000000,10265.679673
69849.827972,0.000000,0.000000,10112.460574
69849.828283,0.000000,0.000000,10342.289223
69849.828594,-518.144159,0.000000,9729.412825
69849.828905,296.082377,-148.041188,10112.460574
69849.829216,0.000000,296.082377,10418.898773
69849.829527,0.000000,0.000000,10418.898773
69849.829838,-370.102971,74.020594,10418.898773
69849.830149,0.000000,148.041188,10189.070123
69849.830460,222.061783,0.000000,10112.460574
69849.830771,0.000000,0.000000,10418.898773
69849.831082,74.020594,-370.102971,10342.289223
69849.831393,-296.082377,0.000000,10572.117872
69849.831704,296.082377,0.000000,10418.898773
69849.832015,0.000000,-370.102971,10342.289223
69849.832326,0.000000,0.000000,10265.679673
69849.832637,0.000000,-518.144159,10112.460574
69849.832948,148.041188,0.000000,10189.070123
69849.833259,0.000000,-148.041188,10189.070123
69849.833570,-148.041188,74.020594,10418.898773
69849.833881,0.000000,222.061783,10189.070123
69849.834191,444.123565,-148.041188,10648.727422
69849.834502,148.041188,-222.061783,10112.460574
69849.834813,-370.102971,0.000000,10495.508323
69849.835124,0.000000,0.000000,10418.898773
69849.835435,-148.041188,222.061783,10342.289223
69849.835746,0.000000,0.000000,10189.070123
69849.836057,0.000000,-296.082377,10265.679673
69849.836368,0.000000,0.000000,10495.508323
69849.836679,148.041188,0.000000,10418.898773
69849.836990,-148.041188,-148.041188,10342.289223
69849.837301,0.000000,0.000000,10418.898773
69849.837612,74.020594,222.061783,10189.070123
69849.837923,148.041188,148.041188,10112.460574
69849.838234,814.226536,0.000000,10648.727422
69849.838545,370.102971,74.020594,10265.679673
69849.838856,222.061783,0.000000,10265.679673
69849.839167,0.000000,0.000000,10189.070123
69849.839478,0.000000,0.000000,10418.898773
69849.839789,-518.144159,0.000000,10418.898773
69849.840100,0.000000,0.000000,10418.898773
69849.840411,222.061783,-222.061783,10265.679673
69849.840722,148.041188,0.000000,10189.070123
69849.841033,148.041188,-444.123565,10265.679673
69849.841344,0.000000,0.000000,10112.460574
69849.841655,370.102971,0.000000,10878.556072
69849.841966,0.000000,0.000000,9806.022374
69849.842277,-222.061783,0.000000,10265.679673
69849.842588,222.061783,-296.082377,10342.289223
69849.842899,0.000000,148.041188,10342.289223
69849.843210,0.000000,0.000000,10342.289223
69849.843521,0.000000,0.000000,10189.070123
69849.843831,0.000000,-74.020594,10342.289223
69849.844142,-666.185348,0.000000,11338.213370
69849.844453,518.144159,222.061783,10572.117872
69849.844764,148.041188,222.061783,10112.460574
69849.845075,148.041188,0.000000,10265.679673
69849.845386,222.061783,148.041188,9346.365076
69849.845697,0.000000,0.000000,10265.679673
69849.846008,74.020594,0.000000,10112.460574
69849.846319,148.041188,148.041188,10342.289223
69849.846630,0.000000,0.000000,10342.289223
69849.846941,-592.164754,148.041188,9729.412825
69849.847252,74.020594,74.020594,10955.165621
69849.847563,0.000000,0.000000,10189.070123
69849.847874,-296.082377,0.000000,10418.898773
69849.848185,0.000000,296.082377,10495.508323
69849.848496,0.000000,-296.082377,10342.289223
69849.848807,0.000000,-296.082377,10112.460574
69849.849118,148.041188,0.000000,10035.851024
69849.849429,222.061783,0.000000,10265.679673
69849.849740,296.082377,-296.082377,10112.460574
69849.850051,74.020594,148.041188,10418.898773
69849.850362,370.102971,0.000000,10495.508323
69849.850673,-296.082377,74.020594,10265.679673
69849.850984,74.020594,222.061783,10418.898773
69849.851295,74.020594,0.000000,10189.070123
69849.851606,0.000000,0.000000,10495.508323
69849.851917,0.000000,74.020594,10342.289223
69849.852228,-296.082377,222.061783,10342.289223
69849.852539,296.082377,-370.102971,10495.508323
69849.852850,0.000000,74.020594,10189.070123
69849.853160,0.000000,0.000000,10189.070123
69849.853471,74.020594,0.000000,10418.898773
69849.853782,0.000000,-74.020594,10418.898773
69849.854093,370.102971,222.061783,9806.022374
69849.854404,-74.020594,370.102971,10342.289223
69849.854715,-592.164754,-740.205942,10342.289223
69849.855026,-222.061783,74.020594,10648.727422
69849.855337,0.000000,0.000000,10112.460574
69849.855648,296.082377,0.000000,10035.851024
69849.855959,296.082377,0.000000,10189.070123
69849.856270,74.020594,148.041188,10495.508323
69849.856581,0.000000,-148.041188,10342.289223
69849.856892,1184.329507,-370.102971,10648.727422
69849.857203,148.041188,0.000000,10035.851024
69849.857514,0.000000,0.000000,10342.289223
69849.857825,-592.164754,444.123565,10418.898773
69849.858136,518.144159,0.000000,10189.070123
69849.858447,-148.041188,-222.061783,10342.289223
69849.858758,0.000000,0.000000,10035.851024
69849.859069,74.020594,0.000000,10342.289223
69849.859380,0.000000,74.020594,10265.679673
69849.859691,74.020594,296.082377,9882.631924
69849.860002,0.000000,0.000000,10265.679673
69849.860313,-148.041188,0.000000,10265.679673
69849.860624,74.020594,0.000000,10112.460574
69849.860935,0.000000,74.020594,9882.631924
69849.861246,0.000000,-148.041188,10418.898773
69849.861557,0.000000,-148.041188,10495.508323
69849.861868,0.000000,0.000000,10265.679673
69849.862179,74.020594,0.000000,10265.679673
69849.862490,0.000000,0.000000,10648.727422
69849.862800,0.000000,-370.102971,10955.165621
69849.863111,-74.020594,222.061783,10342.289223
69849.863422,296.082377,0.000000,10342.289223
69849.863733,222.061783,0.000000,10418.898773
69849.864044,296.082377,0.000000,10189.070123
69849.864355,0.000000,-148.041188,10265.679673
69849.864666,74.020594,0.000000,10418.898773
69849.864977,370.102971,0.000000,10189.070123
69849.865288,518.144159,0.000000,10265.679673
69849.865599,296.082377,0.000000,9806.022374
69849.865910,0.000000,-666.185348,10648.727422
69849.866221,-148.041188,74.020594,9652.803275
69849.866532,0.000000,74.020594,10265.679673
69849.866843,0.000000,148.041188,10265.679673
69849.867154,0.000000,148.041188,10572.117872
69849.867465,0.000000,0.000000,10342.289223
69849.867776,148.041188,0.000000,9959.241474
69849.868087,0.000000,296.082377,9959.241474
69849.868398,370.102971,0.000000,10572.117872
69849.868709,0.000000,0.000000,10265.679673
69849.869020,222.061783,-296.082377,11031.775171
69849.869331,0.000000,-222.061783,9959.241474
69849.869642,0.000000,74.020594,10189.070123
69849.869953,222.061783,74.020594,10189.070123
69849.870264,0.000000,0.000000,10418.898773
69849.870575,-222.061783,74.020594,10189.070123
69849.870886,0.000000,148.041188,10572.117872
69849.871197,296.082377,0.000000,10265.679673
69849.871508,0.000000,0.000000,10035.851024
69849.871819,0.000000,0.000000,10495.508323
69849.872130,-222.061783,148.041188,10342.289223
69849.872440,444.123565,-592.164754,10878.556072
69849.872751,296.082377,0.000000,10112.460574
69849.873062,74.020594,74.020594,10418.898773
69849.873373,0.000000,-222.061783,10418.898773
69849.873684,0.000000,0.000000,10265.679673
69849.873995,74.020594,0.000000,10035.851024
69849.874306,222.061783,0.000000,10265.679673
69849.874617,296.082377,0.000000,10265.679673
69849.874928,0.000000,0.000000,10342.289223
69849.875239,370.102971,-74.020594,10035.851024
69849.875550,444.123565,296.082377,10572.117872
69849.875861,74.020594,0.000000,10342.289223
69849.876172,0.000000,0.000000,10725.336972
69849.876483,0.000000,0.000000,10495.508323
69849.876794,0.000000,148.041188,10342.289223
69849.877105,0.000000,-222.061783,10342.289223
69849.877416,148.041188,0.000000,10035.851024
69849.877727,148.041188,0.000000,10342.289223
69849.878038,0.000000,222.061783,10342.289223
69849.878349,296.082377,-592.164754,10495.508323
69849.878660,148.041188,-222.061783,9806.022374
69849.878971,370.102971,-296.082377,10648.727422
69849.879282,0.000000,222.061783,10495.508323
69849.879593,-296.082377,0.000000,10572.117872
69849.879904,74.020594,0.000000,10418.898773
69849.880215,296.082377,0.000000,10189.070123
69849.880526,0.000000,74.020594,10112.460574
69849.880837,0.000000,222.061783,11031.775171
69849.881148,-296.082377,0.000000,10418.898773
69849.881459,0.000000,0.000000,9729.412825
69849.881769,296.082377,148.041188,10035.851024
69849.882080,222.061783,74.020594,10035.851024
69849.882391,148.041188,-222.061783,9959.241474
69849.882702,74.020594,0.000000,10342.289223
69849.883013,-148.041188,0.000000,10418.898773
69849.883324,74.020594,74.020594,9882.631924
69849.883635,74.020594,0.000000,10189.070123
69849.883947,-296.082377,296.082377,9959.241474
69849.884258,518.144159,-148.041188,10955.165621
69849.884569,-518.144159,148.041188,9959.241474
69849.884880,74.020594,-814.226536,10725.336972
69849.885191,148.041188,-222.061783,11108.384721
69849.885502,0.000000,0.000000,10418.898773
69849.885813,-148.041188,0.000000,10572.117872
69849.886124,0.000000,-148.041188,10265.679673
69849.886435,222.061783,-296.082377,10035.851024
69849.886746,222.061783,0.000000,10265.679673
69849.887057,0.000000,0.000000,10342.289223
69849.887368,-222.061783,0.000000,10495.508323
69849.887679,0.000000,0.000000,10112.460574
69849.887990,592.164754,0.000000,10112.460574
69849.888301,296.082377,-370.102971,10801.946522
69849.888612,-296.082377,74.020594,10189.070123
69849.888923,-222.061783,0.000000,10189.070123
69849.889235,0.000000,0.000000,10189.070123
69849.889546,296.082377,148.041188,10035.851024
69849.889857,0.000000,74.020594,10342.289223
69849.890168,-222.061783,0.000000,10418.898773
69849.890479,0.000000,0.000000,10265.679673
69849.890790,0.000000,-148.041188,10495.508323
69849.891101,-74.020594,-370.102971,10035.851024
69849.891412,814.226536,0.000000,10418.898773
69849.891723,74.020594,0.000000,10342.289223
69849.892034,-222.061783,0.000000,10572.117872
69849.892345,0.000000,-296.082377,10648.727422
69849.892656,148.041188,74.020594,10265.679673
69849.892967,0.000000,222.061783,10495.508323
69849.893278,0.000000,74.020594,10418.898773
69849.893589,0.000000,0.000000,10495.508323
69849.893900,-74.020594,222.061783,10878.556072
69849.894212,888.247130,-222.061783,10265.679673
69849.894523,74.020594,222.061783,9729.412825
69849.894834,0.000000,-222.061783,10265.679673
69849.895145,-222.061783,74.020594,9882.631924
69849.895456,0.000000,0.000000,10189.070123
69849.895767,222.061783,0.000000,10265.679673
69849.896078,0.000000,0.000000,10112.460574
69849.896389,-296.082377,0.000000,10495.508323
69849.896700,222.061783,-222.061783,10342.289223
69849.897011,296.082377,74.020594,10342.289223
69849.897322,222.061783,222.061783,10801.946522
69849.897633,74.020594,74.020594,10342.289223
69849.897944,74.020594,0.000000,10418.898773
69849.898255,0.000000,0.000000,10418.898773
69849.898566,222.061783,0.000000,10342.289223
69849.898877,74.020594,0.000000,10035.851024
69849.899188,0.000000,0.000000,10035.851024
69849.899500,-370.102971,0.000000,11261.603821
69849.899811,-74.020594,-296.082377,10572.117872
69849.900122,-74.020594,-296.082377,9806.022374
69849.900433,370.102971,0.000000,10265.679673
69849.900744,0.000000,222.061783,10495.508323
69849.901055,0.000000,0.000000,10418.898773
69849.901366,0.000000,0.000000,10265.679673
69849.901677,74.020594,0.000000,10189.070123
69849.901988,370.102971,0.000000,10035.851024
69849.902299,-222.061783,148.041188,10572.117872
69849.902610,0.000000,0.000000,10495.508323
69849.902921,0.000000,148.041188,10342.289223
69849.903232,148.041188,0.000000,10189.070123
69849.903543,0.000000,0.000000,10342.289223
69849.903854,-296.082377,74.020594,10342.289223
69849.904165,0.000000,-148.041188,10648.727422
69849.904476,74.020594,-296.082377,10878.556072
69849.904788,222.061783,0.000000,10112.460574
69849.905099,370.102971,0.000000,10495.508323
69849.905410,148.041188,-148.041188,10265.679673
69849.905721,74.020594,0.000000,10495.508323
69849.906032,0.000000,0.000000,10342.289223
69849.906343,148.041188,0.000000,10265.679673
69849.906654,-74.020594,0.000000,10112.460574
69849.906965,296.082377,592.164754,10265.679673
69849.907276,-296.082377,592.164754,9959.241474
69849.907587,-296.082377,0.000000,10725.336972
69849.907898,444.123565,148.041188,9499.584175
69849.908209,0.000000,0.000000,9882.631924
69849.908520,-148.041188,0.000000,10572.117872
69849.908831,148.041188,74.020594,10495.508323
69849.909142,296.082377,0.000000,10112.460574
69849.909453,444.123565,0.000000,10035.851024
69849.909764,296.082377,-222.061783,10112.460574
69849.910076,-518.144159,296.082377,10418.898773
69849.910387,-370.102971,0.000000,10418.898773
69849.910698,74.020594,296.082377,10265.679673
69849.911009,0.000000,0.000000,10189.070123
69849.911320,0.000000,-370.102971,10265.679673
69849.911631,0.000000,0.000000,10342.289223
69849.911942,148.041188,0.000000,10112.460574
69849.912253,148.041188,0.000000,10418.898773
69849.912564,0.000000,370.102971,9729.412825
69849.912875,444.123565,222.061783,9882.631924
69849.913186,148.041188,370.102971,10572.117872
69849.913497,-222.061783,0.000000,10342.289223
69849.913808,-148.041188,0.000000,10342.289223
69849.914119,222.061783,-222.061783,10035.851024
69849.914430,0.000000,0.000000,10342.289223
69849.914741,-148.041188,74.020594,10189.070123
69849.915052,666.185348,74.020594,10342.289223
69849.915364,-592.164754,-74.020594,10035.851024
69849.915675,518.144159,-370.102971,9806.022374
69849.915986,518.144159,0.000000,10342.289223
69849.916297,0.000000,0.000000,10112.460574
69849.916608,0.000000,0.000000,10189.070123
69849.916919,-148.041188,0.000000,10495.508323
69849.917230,-222.061783,0.000000,10342.289223
69849.917541,0.000000,148.041188,10265.679673
69849.917852,0.000000,0.000000,9882.631924
69849.918163,-666.185348,-592.164754,10265.679673
69849.918474,222.061783,296.082377,10418.898773
69849.918785,592.164754,0.000000,10648.727422
69849.919096,0.000000,0.000000,10265.679673
69849.919407,0.000000,-74.020594,10342.289223
69849.919718,0.000000,0.000000,10495.508323
69849.920029,74.020594,0.000000,10035.851024
69849.920341,222.061783,0.000000,10035.851024
69849.920652,74.020594,0.000000,9806.022374
69849.920963,74.020594,222.061783,10265.679673
69849.921274,148.041188,148.041188,10342.289223
69849.921585,0.000000,0.000000,10342.289223
69849.921896,0.000000,74.020594,10418.898773
69849.922207,-296.082377,222.061783,9499.584175
69849.922518,0.000000,0.000000,10112.460574
69849.922829,-148.041188,0.000000,10418.898773
69849.923140,148.041188,0.000000,10495.508323
69849.923451,0.000000,-148.041188,10495.508323
69849.923762,-148.041188,-296.082377,10112.460574
69849.924073,0.000000,-148.041188,9959.241474
69849.924384,0.000000,222.061783,10189.070123
69849.924695,0.000000,148.041188,10112.460574
69849.925006,148.041188,518.144159,10265.679673
69849.925317,0.000000,74.020594,9422.974625
69849.925629,74.020594,0.000000,10648.727422
69849.925940,296.082377,0.000000,10572.117872
69849.926251,0.000000,74.020594,10342.289223
69849.926562,74.020594,-148.041188,10189.070123
69849.926873,296.082377,-148.041188,10572.117872
69849.927184,148.041188,0.000000,10418.898773
69849.927495,0.000000,-222.061783,10418.898773
69849.927806,296.082377,-222.061783,10265.679673
69849.928117,-296.082377,740.205942,10648.727422
69849.928428,222.061783,74.020594,10265.679673
69849.928739,0.000000,0.000000,9806.022374
69849.929050,0.000000,0.000000,10342.289223
69849.929361,74.020594,0.000000,9652.803275
69849.929672,148.041188,74.020594,10189.070123
69849.929983,0.000000,148.041188,10265.679673
69849.930294,-222.061783,370.102971,10418.898773
69849.930605,0.000000,148.041188,10648.727422
69849.930917,0.000000,74.020594,10342.289223
69849.931228,-74.020594,222.061783,10265.679673
69849.931539,-148.041188,0.000000,10878.556072
69849.931850,0.000000,0.000000,10495.508323
69849.932161,148.041188,222.061783,10572.117872
69849.932472,296.082377,0.000000,10265.679673
69849.932783,222.061783,-296.082377,10189.070123
69849.933094,222.061783,0.000000,10189.070123
69849.933405,148.041188,74.020594,10265.679673
69849.933716,0.000000,-296.082377,9882.631924
69849.934027,222.061783,222.061783,10572.117872
69849.934338,592.164754,0.000000,10725.336972
69849.934649,148.041188,222.061783,10035.851024
69849.934960,296.082377,370.102971,10495.508323
69849.935271,-370.102971,-370.102971,10572.117872
69849.935582,-148.041188,-370.102971,10495.508323
69849.935893,148.041188,0.000000,10035.851024
69849.936205,222.061783,0.000000,10035.851024
69849.936516,-148.041188,-444.123565,10265.679673
69849.936827,0.000000,-148.041188,10495.508323
69849.937138,0.000000,-222.061783,10189.070123
69849.937449,592.164754,0.000000,9882.631924
69849.937760,444.123565,-148.041188,10265.679673
69849.938071,-370.102971,0.000000,9959.241474
69849.938382,0.000000,518.144159,10189.070123
69849.938693,0.000000,444.123565,10342.289223
69849.939004,148.041188,296.082377,9959.241474
69849.939315,0.000000,0.000000,10418.898773
69849.939626,-222.061783,148.041188,10648.727422
69849.939937,0.000000,0.000000,10342.289223
69849.940248,148.041188,-370.102971,10189.070123
69849.940559,222.061783,-148.041188,9422.974625
69849.940870,0.000000,0.000000,9729.412825
69849.941181,-296.082377,-222.061783,10495.508323
69849.941493,74.020594,-518.144159,10648.727422
69849.941804,222.061783,0.000000,9959.241474
69849.942115,592.164754,148.041188,9959.241474
69849.942426,0.000000,148.041188,10265.679673
69849.942737,0.000000,148.041188,10572.117872
69849.943048,74.020594,74.020594,9959.241474
69849.943359,148.041188,74.020594,9959.241474
69849.943670,222.061783,74.020594,10572.117872
69849.943981,74.020594,0.000000,10725.336972
69849.944292,0.000000,74.020594,10418.898773
69849.944603,-296.082377,0.000000,10342.289223
69849.944914,444.123565,148.041188,10189.070123
69849.945225,0.000000,-370.102971,10112.460574
69849.945536,0.000000,0.000000,10725.336972
69849.945847,0.000000,0.000000,10418.898773
69849.946158,0.000000,-370.102971,10035.851024
69849.946469,666.185348,0.000000,10112.460574
69849.946781,518.144159,148.041188,10342.289223
69849.947092,0.000000,444.123565,10265.679673
69849.947403,-296.082377,0.000000,10418.898773
69849.947714,0.000000,0.000000,11108.384721
69849.948025,74.020594,296.082377,10112.460574
69849.948336,0.000000,148.041188,10418.898773
69849.948647,-296.082377,0.000000,10572.117872
69849.948958,-222.061783,-296.082377,10801.946522
69849.949269,148.041188,0.000000,9422.974625
69849.949580,444.123565,-666.185348,10418.898773
69849.949891,444.123565,74.020594,9882.631924
69849.950202,296.082377,-222.061783,10265.679673
69849.950513,0.000000,0.000000,10342.289223
69849.950824,296.082377,0.000000,10035.851024
69849.951135,592.164754,148.041188,9806.022374
69849.951446,0.000000,296.082377,10418.898773
69849.951758,-444.123565,0.000000,10572.117872
69849.952069,-148.041188,148.041188,9729.412825
69849.952380,0.000000,148.041188,10418.898773
69849.952691,0.000000,0.000000,10572.117872
69849.953002,0.000000,0.000000,10572.117872
69849.953313,0.000000,-148.041188,10648.727422
69849.953624,0.000000,296.082377,10189.070123
69849.953935,888.247130,-148.041188,10112.460574
69849.954246,740.205942,0.000000,10112.460574
69849.954557,222.061783,-296.082377,10265.679673
69849.954868,-222.061783,0.000000,10572.117872
69849.955179,296.082377,0.000000,10265.679673
69849.955490,222.061783,0.000000,10418.898773
69849.955801,148.041188,0.000000,10112.460574
69849.956112,0.000000,0.000000,10342.289223
69849.956423,-666.185348,296.082377,10342.289223
69849.956734,222.061783,-370.102971,10495.508323
69849.957046,296.082377,0.000000,10342.289223
69849.957357,0.000000,0.000000,10342.289223
69849.957668,0.000000,-962.267725,10648.727422
69849.957979,148.041188,0.000000,10418.898773
69849.958290,74.020594,0.000000,10189.070123
69849.958601,0.000000,-222.061783,10342.289223
69849.958912,0.000000,0.000000,10495.508323
69849.959223,0.000000,0.000000,10035.851024
69849.959534,0.000000,370.102971,10112.460574
69849.959845,-296.082377,0.000000,10342.289223
69849.960156,74.020594,0.000000,10342.289223
69849.960467,-296.082377,444.123565,10189.070123
69849.960778,0.000000,148.041188,10189.070123
69849.961089,148.041188,0.000000,10495.508323
69849.961400,148.041188,-296.082377,10265.679673
69849.961711,0.000000,-296.082377,10648.727422
69849.962022,74.020594,74.020594,10265.679673
69849.962334,296.082377,-666.185348,9882.631924
69849.962645,-148.041188,0.000000,10878.556072
69849.962956,-888.247130,-74.020594,10495.508323
69849.963267,74.020594,0.000000,10265.679673
69849.963578,296.082377,0.000000,10112.460574
69849.963889,0.000000,0.000000,10265.679673
69849.964200,0.000000,74.020594,10495.508323
69849.964511,0.000000,0.000000,10572.117872
69849.964822,666.185348,0.000000,10342.289223
69849.965133,0.000000,-296.082377,10418.898773
69849.965444,74.020594,0.000000,10418.898773
69849.965755,-74.020594,444.123565,10342.289223
69849.966066,0.000000,74.020594,10495.508323
69849.966377,0.000000,74.020594,10112.460574
69849.966688,0.000000,-222.061783,9959.241474
69849.966999,74.020594,-296.082377,10265.679673
69849.967310,0.000000,0.000000,10265.679673
69849.967622,0.000000,0.000000,10495.508323
69849.967933,-296.082377,0.000000,9729.412825
69849.968244,0.000000,222.061783,9882.631924
69849.968555,296.082377,444.123565,9806.022374
69849.968866,0.000000,-148.041188,10265.679673
69849.969177,148.041188,518.144159,10112.460574
69849.969488,0.000000,0.000000,10189.070123
69849.969799,0.000000,0.000000,10342.289223
69849.970110,0.000000,0.000000,10342.289223
69849.970421,-148.041188,-148.041188,10418.898773
69849.970732,0.000000,0.000000,10648.727422
69849.971043,0.000000,0.000000,10189.070123
69849.971354,74.020594,0.000000,10418.898773
69849.971665,148.041188,0.000000,10265.679673
69849.971976,-74.020594,222.061783,10418.898773
69849.972287,0.000000,-148.041188,10342.289223
69849.972598,74.020594,-74.020594,9729.412825
69849.972910,370.102971,0.000000,10112.460574
69849.973221,296.082377,0.000000,10035.851024
69849.973532,296.082377,0.000000,10342.289223
69849.973843,-148.041188,0.000000,10725.336972
69849.974154,0.000000,0.000000,10648.727422
69849.974465,148.041188,-148.041188,10035.851024
69849.974776,370.102971,74.020594,10418.898773
69849.975087,148.041188,0.000000,10418.898773
69849.975398,0.000000,148.041188,10878.556072
69849.975709,0.000000,-592.164754,10418.898773
69849.976020,222.061783,-444.123565,10418.898773
69849.976331,74.020594,0.000000,10112.460574
69849.976642,0.000000,74.020594,10495.508323
69849.976953,0.000000,0.000000,10342.289223
69849.977264,0.000000,74.020594,10418.898773
69849.977575,74.020594,148.041188,10265.679673
69849.977887,0.000000,-666.185348,10495.508323
69849.978198,-148.041188,-296.082377,10418.898773
69849.978509,148.041188,-740.205942,10648.727422
69849.978820,148.041188,0.000000,10189.070123
69849.979131,444.123565,148.041188,10342.289223
69849.979442,74.020594,0.000000,10265.679673
69849.979753,-296.082377,0.000000,10418.898773
69849.980064,0.000000,222.061783,10265.679673
69849.980375,296.082377,74.020594,10801.946522
69849.980686,296.082377,0.000000,11108.384721
69849.980997,0.000000,296.082377,10495.508323
69849.981308,444.123565,74.020594,10955.165621
69849.981619,148.041188,0.000000,10189.070123
69849.981930,148.041188,-222.061783,10878.556072
69849.982241,74.020594,0.000000,10495.508323
69849.982552,0.000000,0.000000,10495.508323
69849.982863,0.000000,74.020594,10495.508323
69849.983174,0.000000,148.041188,10112.460574
69849.983485,222.061783,-148.041188,11031.775171
69849.983796,0.000000,74.020594,10725.336972
69849.984107,222.061783,370.102971,10418.898773
69849.984418,0.000000,-148.041188,9959.241474
69849.984729,148.041188,0.000000,10725.336972
69849.985040,148.041188,0.000000,10265.679673
69849.985351,148.041188,0.000000,10189.070123
69849.985662,0.000000,0.000000,10112.460574
69849.985972,-296.082377,0.000000,10955.165621
69849.986283,518.144159,-296.082377,10495.508323
69849.986594,0.000000,74.020594,10495.508323
69849.986905,222.061783,0.000000,10189.070123
69849.987216,0.000000,0.000000,10342.289223
69849.987527,0.000000,370.102971,10265.679673
69849.987838,74.020594,-518.144159,10725.336972
69849.988149,-222.061783,592.164754,10418.898773
69849.988460,0.000000,148.041188,10189.070123
69849.988771,0.000000,0.000000,10342.289223
69849.989082,0.000000,592.164754,10495.508323
69849.989393,0.000000,0.000000,10112.460574
69849.989703,0.000000,148.041188,10035.851024
69849.990014,0.000000,74.020594,10035.851024
69849.990325,0.000000,0.000000,10801.946522
69849.990636,0.000000,-592.164754,10265.679673
69849.990947,222.061783,222.061783,10112.460574
69849.991258,0.000000,-222.061783,10418.898773
69849.991569,-296.082377,148.041188,10418.898773
69849.991880,0.000000,0.000000,10801.946522
69849.992191,0.000000,0.000000,10265.679673
69849.992502,222.061783,0.000000,10265.679673
69849.992813,74.020594,0.000000,9959.241474
69849.993123,0.000000,74.020594,10418.898773
69849.993434,-74.020594,-296.082377,10495.508323
69849.993745,296.082377,-222.061783,10265.679673
69849.994056,296.082377,0.000000,10572.117872
69849.994367,0.000000,-296.082377,9882.631924
69849.994678,0.000000,0.000000,10265.679673
69849.994989,0.000000,0.000000,10418.898773
69849.995300,0.000000,74.020594,10112.460574
69849.995611,74.020594,0.000000,10035.851024
69849.995922,0.000000,-222.061783,10265.679673
69849.996233,0.000000,-518.144159,9729.412825
69849.996544,0.000000,74.020594,10112.460574
69849.996854,0.000000,0.000000,10035.851024
69849.997165,74.020594,0.000000,10342.289223
69849.997476,0.000000,0.000000,10801.946522
69849.997787,0.000000,-148.041188,10189.070123
69849.998098,0.000000,0.000000,10495.508323
69849.998409,0.000000,0.000000,10418.898773
69849.998720,0.000000,0.000000,10189.070123
69849.999031,-148.041188,148.041188,10572.117872
69849.999342,-222.061783,0.000000,10648.727422
69849.999653,148.041188,-296.082377,10189.070123
69849.999964,296.082377,0.000000,10725.336972
69850.000274,0.000000,74.020594,10878.556072
69850.000585,-222.061783,0.000000,10342.289223
69850.000896,0.000000,0.000000,10265.679673
69850.001207,222.061783,0.000000,10265.679673
69850.001518,148.041188,0.000000,10342.289223
69850.001829,-296.082377,0.000000,10189.070123
69850.002140,0.000000,0.000000,10418.898773
69850.002451,222.061783,0.000000,10342.289223
69850.002762,0.000000,0.000000,10418.898773
69850.003073,0.000000,-222.061783,10265.679673
69850.003384,296.082377,444.123565,9882.631924
69850.003695,296.082377,-222.061783,11338.213370
69850.004005,444.123565,-148.041188,10189.070123
69850.004316,0.000000,0.000000,10265.679673
69850.004627,148.041188,0.000000,10189.070123
69850.004938,148.041188,0.000000,10418.898773
69850.005249,148.041188,-222.061783,10418.898773
69850.005560,0.000000,0.000000,10265.679673
69850.005871,148.041188,0.000000,10342.289223
69850.006182,-222.061783,740.205942,10342.289223
69850.006493,-148.041188,74.020594,10418.898773
69850.006804,-148.041188,74.020594,10265.679673
69850.007115,0.000000,0.000000,10342.289223
69850.007425,0.000000,0.000000,10725.336972
69850.007736,-222.061783,0.000000,10418.898773
69850.008047,0.000000,148.041188,10112.460574
69850.008358,222.061783,148.041188,10265.679673
69850.008669,0.000000,0.000000,10342.289223
69850.008980,0.000000,518.144159,10342.289223
69850.009291,0.000000,296.082377,10342.289223
69850.009602,0.000000,814.226536,10342.289223
69850.009913,-518.144159,0.000000,10265.679673
69850.010224,0.000000,0.000000,10495.508323
69850.010535,148.041188,-148.041188,10189.070123
69850.010846,296.082377,0.000000,10112.460574
69850.011156,-148.041188,0.000000,10418.898773
69850.011467,0.000000,-148.041188,10265.679673
69850.011778,296.082377,222.061783,10418.898773
69850.012089,518.144159,0.000000,10035.851024
69850.012400,-222.061783,74.020594,10418.898773
69850.012711,222.061783,-74.020594,10112.460574
69850.013022,-148.041188,0.000000,10342.289223
69850.013333,74.020594,148.041188,10035.851024
69850.013644,74.020594,0.000000,10189.070123
69850.013955,0.000000,0.000000,10342.289223
69850.014266,-222.061783,74.020594,10418.898773
69850.014577,222.061783,0.000000,9806.022374
69850.014887,0.000000,148.041188,9806.022374
69850.015198,296.082377,-296.082377,9959.241474
69850.015509,222.061783,0.000000,10418.898773
69850.015820,0.000000,0.000000,10112.460574
69850.016131,518.144159,74.020594,10648.727422
69850.016442,148.041188,0.000000,10189.070123
69850.016753,148.041188,0.000000,9959.241474
69850.017064,148.041188,-148.041188,10495.508323
69850.017375,0.000000,148.041188,10342.289223
69850.017686,148.041188,0.000000,10648.727422
69850.017997,296.082377,222.061783,10878.556072
69850.018307,370.102971,148.041188,10725.336972
69850.018618,0.000000,0.000000,10418.898773
69850.018929,74.020594,0.000000,10112.460574
69850.019240,0.000000,148.041188,10112.460574
69850.019551,0.000000,0.000000,10265.679673
69850.019862,148.041188,0.000000,10265.679673
69850.020173,0.000000,0.000000,10265.679673
69850.020484,-148.041188,-148.041188,10418.898773
69850.020795,148.041188,0.000000,10342.289223
69850.021106,0.000000,0.000000,9959.241474
69850.021417,0.000000,222.061783,10265.679673
69850.021728,148.041188,0.000000,10955.165621
69850.022038,0.000000,444.123565,10725.336972
69850.022349,0.000000,-296.082377,10112.460574
69850.022660,148.041188,0.000000,10418.898773
69850.022971,370.102971,0.000000,10189.070123
69850.023282,148.041188,-222.061783,10112.460574
69850.023593,0.000000,0.000000,10265.679673
69850.023904,74.020594,74.020594,10265.679673
69850.024215,222.061783,74.020594,10189.070123
69850.024526,222.061783,0.000000,9193.145976
69850.024837,0.000000,0.000000,10112.460574
69850.025148,0.000000,444.123565,10112.460574
69850.025458,0.000000,592.164754,9652.803275
69850.025769,-222.061783,0.000000,10342.289223
69850.026080,222.061783,-222.061783,10112.460574
69850.026391,0.000000,0.000000,10342.289223
69850.026702,0.000000,74.020594,10495.508323
69850.027013,0.000000,74.020594,10189.070123
69850.027324,74.020594,0.000000,10418.898773
69850.027635,222.061783,296.082377,10418.898773
69850.027946,-370.102971,0.000000,10035.851024
69850.028257,-222.061783,0.000000,10495.508323
69850.028568,0.000000,0.000000,10648.727422
69850.028879,0.000000,-222.061783,10572.117872
69850.029189,74.020594,0.000000,9882.631924
69850.029500,0.000000,0.000000,10189.070123
69850.029811,0.000000,0.000000,10265.679673
69850.030122,74.020594,0.000000,10035.851024
69850.030433,296.082377,370.102971,9959.241474
69850.030744,-296.082377,148.041188,9729.412825
69850.031055,0.000000,370.102971,10265.679673
69850.031366,74.020594,0.000000,10495.508323
69850.031677,444.123565,-370.102971,10725.336972
69850.031988,74.020594,-222.061783,10342.289223
69850.032299,0.000000,0.000000,10418.898773
69850.032609,0.000000,0.000000,10265.679673
69850.032920,0.000000,0.000000,10342.289223
69850.033231,0.000000,296.082377,10725.336972
69850.033542,74.020594,-74.020594,10495.508323
69850.033853,0.000000,-148.041188,9576.193725
69850.034164,222.061783,-148.041188,9882.631924
69850.034475,148.041188,0.000000,10418.898773
69850.034786,148.041188,74.020594,10035.851024
69850.035097,148.041188,0.000000,10035.851024
69850.035408,0.000000,148.041188,10342.289223
69850.035719,0.000000,0.000000,10418.898773
69850.036030,222.061783,0.000000,10725.336972
69850.036340,0.000000,0.000000,10418.898773
69850.036651,0.000000,0.000000,10342.289223
69850.036962,0.000000,0.000000,10265.679673
69850.037273,0.000000,222.061783,10265.679673
69850.037584,74.020594,-444.123565,10418.898773
69850.037895,74.020594,-296.082377,10112.460574
69850.038206,0.000000,0.000000,10035.851024
69850.038517,0.000000,0.000000,10265.679673
69850.038828,222.061783,518.144159,10418.898773
69850.039139,74.020594,0.000000,10265.679673
69850.039450,148.041188,74.020594,10189.070123
69850.039761,-222.061783,0.000000,10342.289223
69850.040071,0.000000,0.000000,10342.289223
69850.040382,74.020594,-74.020594,10112.460574
69850.040693,74.020594,222.061783,10189.070123
69850.041004,0.000000,-74.020594,9806.022374
69850.041315,-148.041188,0.000000,10418.898773
69850.041626,592.164754,-666.185348,10955.165621
69850.041937,74.020594,74.020594,10035.851024
69850.042248,74.020594,0.000000,10112.460574
69850.042559,148.041188,-222.061783,10112.460574
69850.042870,296.082377,148.041188,10112.460574
69850.043181,222.061783,592.164754,10342.289223
69850.043491,-148.041188,0.000000,10418.898773
69850.043802,-592.164754,74.020594,10342.289223
69850.044113,0.000000,0.000000,10112.460574
69850.044424,0.000000,0.000000,9882.631924
69850.044735,-148.041188,0.000000,10495.508323
69850.045046,-148.041188,0.000000,10418.898773
69850.045357,148.041188,0.000000,10035.851024
69850.045668,370.102971,0.000000,9806.022374
69850.045979,0.000000,-296.082377,9499.584175
69850.046290,370.102971,0.000000,9499.584175
69850.046601,0.000000,0.000000,10265.679673
69850.046912,74.020594,148.041188,10035.851024
69850.047222,0.000000,74.020594,10495.508323
69850.047533,-222.061783,0.000000,10418.898773
69850.047844,0.000000,0.000000,10495.508323
69850.048155,0.000000,0.000000,10495.508323
69850.048466,0.000000,0.000000,10342.289223
69850.048777,0.000000,-148.041188,11108.384721
69850.049088,1036.288319,0.000000,9806.022374
69850.049399,148.041188,0.000000,10342.289223
69850.049710,0.000000,0.000000,9882.631924
69850.050021,74.020594,74.020594,10189.070123
69850.050332,-148.041188,0.000000,10265.679673
69850.050642,0.000000,0.000000,10189.070123
69850.050953,0.000000,-148.041188,10189.070123
69850.051264,-296.082377,0.000000,10342.289223
69850.051575,0.000000,148.041188,10725.336972
69850.051886,74.020594,0.000000,10342.289223
69850.052197,74.020594,-296.082377,9806.022374
69850.052508,74.020594,-518.144159,10342.289223
69850.052819,148.041188,74.020594,10342.289223
69850.053130,74.020594,0.000000,10572.117872
69850.053441,74.020594,-148.041188,10342.289223
69850.053752,0.000000,0.000000,10418.898773
69850.054063,74.020594,0.000000,10265.679673
69850.054373,0.000000,-444.123565,10955.165621
69850.054684,0.000000,0.000000,10342.289223
69850.054995,0.000000,74.020594,9959.241474
69850.055306,0.000000,74.020594,10418.898773
69850.055617,0.000000,-148.041188,10342.289223
69850.055928,148.041188,-74.020594,10112.460574
69850.056239,222.061783,0.000000,10418.898773
69850.056550,0.000000,-148.041188,10035.851024
69850.056861,0.000000,0.000000,10342.289223
69850.057172,0.000000,148.041188,10495.508323
69850.057483,74.020594,0.000000,10112.460574
69850.057794,74.020594,0.000000,10265.679673
69850.058104,0.000000,0.000000,10572.117872
69850.058415,-222.061783,74.020594,10495.508323
69850.058726,0.000000,0.000000,9806.022374
69850.059037,296.082377,-592.164754,10189.070123
69850.059348,222.061783,-74.020594,10035.851024
69850.059659,-222.061783,74.020594,10342.289223
69850.059970,0.000000,222.061783,10342.289223
69850.060281,0.000000,148.041188,10648.727422
69850.060592,0.000000,0.000000,10265.679673
69850.060903,0.000000,148.041188,10265.679673
69850.061214,222.061783,148.041188,10189.070123
69850.061524,-370.102971,0.000000,10342.289223
69850.061835,-74.020594,-296.082377,10035.851024
69850.062146,-296.082377,222.061783,10572.117872
69850.062457,296.082377,0.000000,10035.851024
69850.062768,0.000000,-370.102971,10342.289223
69850.063079,-148.041188,-296.082377,10265.679673
69850.063390,296.082377,148.041188,10112.460574
69850.063701,0.000000,74.020594,10342.289223
69850.064012,-222.061783,0.000000,10035.851024
69850.064323,148.041188,296.082377,9806.022374
69850.064634,296.082377,0.000000,9729.412825
69850.064945,592.164754,592.164754,10648.727422
69850.065255,-962.267725,74.020594,10265.679673
69850.065566,0.000000,0.000000,10572.117872
69850.065877,222.061783,0.000000,10572.117872
69850.066188,148.041188,0.000000,10418.898773
69850.066499,74.020594,-148.041188,10189.070123
69850.066810,0.000000,74.020594,10189.070123
69850.067121,0.000000,148.041188,10495.508323
69850.067432,444.123565,148.041188,10725.336972
69850.067743,74.020594,74.020594,10418.898773
69850.068054,296.082377,-296.082377,10112.460574
69850.068365,74.020594,296.082377,10035.851024
69850.068675,444.123565,148.041188,10878.556072
69850.068986,0.000000,0.000000,10572.117872
69850.069297,148.041188,148.041188,10035.851024
69850.069608,74.020594,0.000000,10112.460574
69850.069919,148.041188,0.000000,10112.460574
69850.070230,-148.041188,0.000000,10495.508323
69850.070541,0.000000,0.000000,10342.289223
69850.070852,0.000000,0.000000,10265.679673
69850.071163,0.000000,0.000000,10035.851024
69850.071474,222.061783,444.123565,9959.241474
69850.071785,0.000000,0.000000,10418.898773
69850.072096,-222.061783,0.000000,10648.727422
69850.072406,0.000000,0.000000,10265.679673
69850.072717,0.000000,0.000000,10342.289223
69850.073028,-444.123565,222.061783,10265.679673
69850.073339,0.000000,74.020594,10035.851024
69850.073650,0.000000,296.082377,10342.289223
69850.073961,0.000000,74.020594,10342.289223
69850.074272,0.000000,0.000000,10495.508323
69850.074583,148.041188,0.000000,10035.851024
69850.074894,296.082377,-592.164754,10495.508323
69850.075205,-444.123565,-296.082377,10035.851024
69850.075516,0.000000,0.000000,10265.679673
69850.075826,0.000000,148.041188,10265.679673
69850.076137,0.000000,-148.041188,10418.898773
69850.076448,0.000000,0.000000,10342.289223
69850.076759,74.020594,0.000000,9959.241474
69850.077070,222.061783,296.082377,10265.679673
69850.077381,-222.061783,0.000000,10648.727422
69850.077692,-222.061783,74.020594,9959.241474
69850.078003,-296.082377,0.000000,9116.536426
69850.078314,0.000000,444.123565,10265.679673
69850.078625,518.144159,148.041188,10265.679673
69850.078936,0.000000,0.000000,10265.679673
69850.079247,0.000000,0.000000,10495.508323
69850.079557,0.000000,0.000000,10265.679673
69850.079868,296.082377,0.000000,10265.679673
69850.080179,370.102971,0.000000,10418.898773
69850.080490,-148.041188,370.102971,10112.460574
69850.080801,148.041188,-296.082377,10265.679673
69850.081112,0.000000,-148.041188,10265.679673
69850.081423,222.061783,222.061783,10418.898773
69850.081734,0.000000,148.041188,10418.898773
69850.082045,0.000000,0.000000,10418.898773
69850.082356,-296.082377,-296.082377,10418.898773
69850.082667,296.082377,-296.082377,10112.460574
69850.082978,74.020594,-518.144159,10342.289223
69850.083288,0.000000,-148.041188,10418.898773
69850.083599,148.041188,74.020594,10189.070123
69850.083910,0.000000,0.000000,9959.241474
69850.084221,222.061783,74.020594,9959.241474
69850.084532,296.082377,0.000000,10035.851024
69850.084843,0.000000,0.000000,10418.898773
69850.085154,0.000000,0.000000,10572.117872
69850.085465,0.000000,0.000000,10495.508323
69850.085776,0.000000,74.020594,9959.241474
69850.086087,74.020594,-444.123565,10035.851024
69850.086398,0.000000,-148.041188,10418.898773
69850.086708,148.041188,74.020594,10112.460574
69850.087019,296.082377,0.000000,10418.898773
69850.087330,148.041188,0.000000,10265.679673
69850.087641,-74.020594,-296.082377,10725.336972
69850.087952,74.020594,0.000000,9959.241474
69850.088263,0.000000,-296.082377,10265.679673
69850.088574,296.082377,-222.061783,9959.241474
69850.088885,148.041188,0.000000,10265.679673
69850.089196,-222.061783,222.061783,10572.117872
69850.089507,148.041188,0.000000,10495.508323
69850.089818,148.041188,-148.041188,10035.851024
69850.090129,0.000000,-296.082377,10342.289223
69850.090439,444.123565,222.061783,11031.775171
69850.090750,370.102971,518.144159,10648.727422
69850.091061,0.000000,0.000000,10265.679673
69850.091372,74.020594,0.000000,10342.289223
69850.091683,222.061783,0.000000,10342.289223
69850.091994,0.000000,0.000000,10112.460574
69850.092305,0.000000,0.000000,10342.289223
69850.092616,0.000000,148.041188,10342.289223
69850.092927,0.000000,148.041188,10572.117872
69850.093238,0.000000,74.020594,10955.165621
69850.093549,-296.082377,-296.082377,10572.117872
69850.093860,0.000000,296.082377,10112.460574
69850.094170,-222.061783,0.000000,10725.336972
69850.094481,0.000000,296.082377,10801.946522
69850.094792,74.020594,0.000000,10265.679673
69850.095103,74.020594,-296.082377,10189.070123
69850.095414,0.000000,-296.082377,10265.679673
69850.095725,0.000000,0.000000,9959.241474
69850.096036,518.144159,0.000000,10801.946522
69850.096347,0.000000,0.000000,10342.289223
69850.096658,0.000000,296.082377,10725.336972
69850.096969,-74.020594,592.164754,9959.241474
69850.097280,74.020594,-296.082377,11338.213370
69850.097590,0.000000,0.000000,10342.289223
69850.097901,0.000000,74.020594,10112.460574
69850.098212,148.041188,0.000000,10572.117872
69850.098523,74.020594,74.020594,10035.851024
69850.098834,592.164754,0.000000,10955.165621
69850.099145,-148.041188,148.041188,10342.289223
69850.099456,0.000000,296.082377,10035.851024
69850.099767,148.041188,0.000000,10342.289223
69850.100078,0.000000,-148.041188,9882.631924
69850.100389,-370.102971,148.041188,10265.679673
69850.100700,148.041188,74.020594,10189.070123
69850.101011,0.000000,74.020594,10189.070123
69850.101321,74.020594,74.020594,10342.289223
69850.101632,296.082377,518.144159,10265.679673
69850.101943,0.000000,0.000000,10725.336972
69850.102254,222.061783,0.000000,10265.679673
69850.102565,370.102971,0.000000,10955.165621
69850.102876,0.000000,0.000000,9959.241474
69850.103187,0.000000,0.000000,10495.508323
69850.103498,0.000000,-222.061783,10495.508323
69850.103809,148.041188,-148.041188,10189.070123
69850.104120,0.000000,0.000000,10112.460574
69850.104431,370.102971,148.041188,10342.289223
69850.104742,148.041188,0.000000,10342.289223
69850.105052,0.000000,74.020594,10265.679673
69850.105363,148.041188,148.041188,10265.679673
69850.105674,222.061783,74.020594,10112.460574
69850.105985,-666.185348,-74.020594,10878.556072
69850.106296,0.000000,296.082377,10495.508323
69850.106607,-444.123565,222.061783,10265.679673
69850.106918,0.000000,74.020594,10189.070123
69850.107229,74.020594,-148.041188,10878.556072
69850.107540,0.000000,0.000000,10189.070123
69850.107851,0.000000,-148.041188,10342.289223
69850.108162,0.000000,74.020594,10112.460574
69850.108473,148.041188,74.020594,10265.679673
69850.108783,148.041188,-518.144159,9959.241474
69850.109094,0.000000,148.041188,9806.022374
69850.109405,74.020594,0.000000,10035.851024
69850.109716,0.000000,74.020594,10495.508323
69850.110027,222.061783,0.000000,10572.117872
69850.110338,0.000000,0.000000,10495.508323
69850.110649,0.000000,0.000000,10495.508323
69850.110960,0.000000,-222.061783,10418.898773
69850.111271,0.000000,0.000000,10495.508323
69850.111582,148.041188,0.000000,10342.289223
69850.111893,222.061783,0.000000,9729.412825
69850.112203,0.000000,0.000000,10572.117872
69850.112514,0.000000,-148.041188,10342.289223
69850.112825,148.041188,0.000000,10342.289223
69850.113136,0.000000,0.000000,9959.241474
69850.113447,74.020594,74.020594,10189.070123
69850.113758,0.000000,74.020594,10418.898773
69850.114069,-222.061783,0.000000,10418.898773
69850.114380,0.000000,148.041188,10801.946522
69850.114691,0.000000,74.020594,10418.898773
69850.115002,-592.164754,-74.020594,10418.898773
69850.115313,-592.164754,0.000000,10418.898773
69850.115624,148.041188,0.000000,10265.679673
69850.115934,0.000000,0.000000,10189.070123
69850.116245,0.000000,0.000000,10265.679673
69850.116556,0.000000,0.000000,10342.289223
69850.116867,148.041188,-296.082377,10112.460574
69850.117178,518.144159,-148.041188,10342.289223
69850.117489,74.020594,0.000000,10035.851024
69850.117800,-592.164754,518.144159,10648.727422
69850.118111,-74.020594,0.000000,11261.603821
69850.118422,-222.061783,0.000000,10342.289223
69850.118733,592.164754,666.185348,10112.460574
69850.119044,74.020594,0.000000,10035.851024
69850.119355,-148.041188,-296.082377,10572.117872
69850.119665,296.082377,0.000000,9959.241474
69850.119976,370.102971,0.000000,10112.460574
69850.120287,-74.020594,-518.144159,10112.460574
69850.120598,0.000000,-74.020594,9806.022374
69850.120909,74.020594,-222.061783,10648.727422
69850.121220,0.000000,0.000000,10265.679673
69850.121531,296.082377,222.061783,10342.289223
69850.121842,-222.061783,222.061783,10265.679673
69850.122153,0.000000,0.000000,10648.727422
69850.122464,0.000000,0.000000,10342.289223
69850.122775,0.000000,74.020594,10418.898773
69850.123085,0.000000,0.000000,10572.117872
69850.123396,-148.041188,0.000000,10495.508323
69850.123707,74.020594,0.000000,10265.679673
69850.124018,296.082377,-222.061783,10035.851024
69850.124329,-518.144159,74.020594,10035.851024
69850.124640,592.164754,0.000000,10648.727422
69850.124951,0.000000,1036.288319,9882.631924
69850.125262,0.000000,0.000000,10265.679673
69850.125573,-148.041188,0.000000,10342.289223
69850.125884,148.041188,-222.061783,10189.070123
69850.126195,0.000000,74.020594,10342.289223
69850.126506,0.000000,0.000000,10418.898773
69850.126816,148.041188,148.041188,10418.898773
69850.127127,0.000000,74.020594,11108.384721
69850.127438,74.020594,0.000000,11031.775171
69850.127749,-666.185348,-74.020594,10342.289223
69850.128060,444.123565,0.000000,10801.946522
69850.128371,0.000000,0.000000,10418.898773
69850.128682,148.041188,0.000000,10265.679673
69850.128993,74.020594,0.000000,10112.460574
69850.129304,0.000000,-148.041188,10265.679673
69850.129615,296.082377,0.000000,9959.241474
69850.129926,222.061783,0.000000,9652.803275
69850.130237,0.000000,-592.164754,9959.241474
69850.130547,148.041188,148.041188,11108.384721
69850.130858,0.000000,148.041188,10801.946522
69850.131169,-148.041188,222.061783,10418.898773
69850.131480,222.061783,444.123565,10035.851024
69850.131791,-222.061783,-222.061783,10112.460574
69850.132102,0.000000,0.000000,10495.508323
69850.132413,74.020594,-148.041188,10189.070123
69850.132724,0.000000,-222.061783,10495.508323
69850.133035,296.082377,0.000000,10342.289223
69850.133346,0.000000,0.000000,9959.241474
69850.133657,222.061783,222.061783,10035.851024
69850.133967,0.000000,0.000000,10265.679673
69850.134278,0.000000,148.041188,10418.898773
69850.134589,0.000000,74.020594,10418.898773
69850.134900,0.000000,0.000000,10035.851024
69850.135211,-148.041188,0.000000,10418.898773
69850.135522,0.000000,0.000000,10648.727422
69850.135833,888.247130,222.061783,9806.022374
69850.136144,74.020594,-74.020594,10495.508323
69850.136455,0.000000,-74.020594,10955.165621
69850.136766,370.102971,0.000000,10265.679673
69850.137077,148.041188,0.000000,10342.289223
69850.137388,0.000000,-222.061783,10418.898773
69850.137698,74.020594,0.000000,10112.460574
69850.138009,74.020594,148.041188,9959.241474
69850.138320,148.041188,0.000000,10342.289223
69850.138631,148.041188,0.000000,10189.070123
69850.138942,0.000000,0.000000,10265.679673
69850.139253,74.020594,0.000000,10342.289223
69850.139564,0.000000,0.000000,10572.117872
69850.139875,0.000000,74.020594,9806.022374
69850.140186,222.061783,0.000000,10265.679673
69850.140497,0.000000,-444.123565,10265.679673
69850.140808,592.164754,-888.247130,10878.556072
69850.141119,148.041188,0.000000,10265.679673
69850.141429,0.000000,74.020594,10112.460574
69850.141740,0.000000,74.020594,10265.679673
69850.142051,222.061783,0.000000,10265.679673
69850.142362,0.000000,0.000000,10112.460574
69850.142673,0.000000,74.020594,10648.727422
69850.142984,74.020594,-296.082377,11031.775171
69850.143295,0.000000,222.061783,10572.117872
69850.143606,0.000000,222.061783,10418.898773
69850.143917,296.082377,0.000000,10342.289223
69850.144228,-222.061783,0.000000,10801.946522
69850.144539,0.000000,0.000000,10418.898773
69850.144850,74.020594,0.000000,10265.679673
69850.145160,0.000000,0.000000,10265.679673
69850.145471,0.000000,0.000000,10418.898773
69850.145782,222.061783,-296.082377,10418.898773
69850.146093,0.000000,-74.020594,10495.508323
69850.146404,518.144159,518.144159,10955.165621
69850.146715,74.020594,0.000000,10342.289223
69850.147026,0.000000,-444.123565,10342.289223
69850.147337,148.041188,0.000000,10189.070123
69850.147648,74.020594,0.000000,10265.679673
69850.147959,0.000000,0.000000,10495.508323
69850.148270,0.000000,0.000000,10342.289223
69850.148580,0.000000,-148.041188,10648.727422
69850.148891,-518.144159,-592.164754,10112.460574
69850.149202,-296.082377,0.000000,10648.727422
69850.149513,148.041188,148.041188,9806.022374
69850.149824,0.000000,0.000000,10189.070123
69850.150135,0.000000,0.000000,10648.727422
69850.150446,0.000000,0.000000,10418.898773
69850.150757,0.000000,0.000000,10189.070123
69850.151068,148.041188,0.000000,10035.851024
69850.151379,0.000000,-370.102971,10342.289223
69850.151690,-148.041188,74.020594,10342.289223
69850.152001,-296.082377,-370.102971,10955.165621
69850.152311,74.020594,296.082377,10648.727422
69850.152622,222.061783,-148.041188,10189.070123
69850.152933,0.000000,0.000000,10265.679673
69850.153244,0.000000,74.020594,10418.898773
69850.153555,0.000000,222.061783,10265.679673
69850.153866,0.000000,0.000000,9882.631924
69850.154177,-222.061783,0.000000,10495.508323
69850.154488,74.020594,74.020594,10495.508323
69850.154799,0.000000,0.000000,10418.898773
69850.155110,-666.185348,0.000000,10189.070123
69850.155421,148.041188,0.000000,10265.679673
69850.155732,0.000000,0.000000,10189.070123
69850.156042,0.000000,0.000000,10342.289223
69850.156353,0.000000,0.000000,10342.289223
69850.156664,0.000000,0.000000,10112.460574
69850.156975,0.000000,0.000000,11031.775171
69850.157286,148.041188,74.020594,10342.289223
69850.157597,0.000000,-148.041188,10189.070123
69850.157908,0.000000,0.000000,9959.241474
69850.158219,0.000000,222.061783,10342.289223
69850.158530,0.000000,222.061783,10648.727422
69850.158841,0.000000,0.000000,10725.336972
69850.159152,74.020594,-148.041188,9729.412825
69850.159462,148.041188,0.000000,10265.679673
69850.159773,0.000000,0.000000,10572.117872
69850.160084,0.000000,148.041188,10648.727422
69850.160395,74.020594,74.020594,10418.898773
69850.160706,148.041188,0.000000,10189.070123
69850.161017,0.000000,0.000000,10342.289223
69850.161328,74.020594,222.061783,11108.384721
69850.161639,148.041188,-370.102971,10112.460574
69850.161950,518.144159,0.000000,9959.241474
69850.162261,296.082377,0.000000,10035.851024
69850.162572,0.000000,74.020594,10189.070123
69850.162883,0.000000,74.020594,10495.508323
69850.163193,0.000000,0.000000,10342.289223
69850.163504,148.041188,0.000000,10112.460574
69850.163815,74.020594,0.000000,10112.460574
69850.164126,-296.082377,0.000000,11108.384721
69850.164437,-74.020594,-148.041188,10418.898773
69850.164748,296.082377,74.020594,10035.851024
69850.165059,0.000000,222.061783,9729.412825
69850.165370,148.041188,-222.061783,10189.070123
69850.165681,0.000000,0.000000,10265.679673
69850.165992,74.020594,74.020594,9806.022374
69850.166303,296.082377,74.020594,10342.289223
69850.166614,74.020594,0.000000,10342.289223
69850.166924,0.000000,-592.164754,10418.898773
69850.167235,0.000000,-518.144159,10265.679673
69850.167546,592.164754,0.000000,11031.775171
69850.167857,296.082377,0.000000,10189.070123
69850.168168,-148.041188,0.000000,10189.070123
69850.168479,74.020594,-370.102971,10495.508323
69850.168790,0.000000,222.061783,10342.289223
69850.169101,0.000000,0.000000,10342.289223
69850.169412,0.000000,0.000000,10265.679673
69850.169723,444.123565,74.020594,10112.460574
69850.170034,148.041188,148.041188,9806.022374
69850.170344,0.000000,-592.164754,10418.898773
69850.170655,0.000000,-592.164754,10189.070123
69850.170966,444.123565,74.020594,9806.022374
69850.171277,-148.041188,0.000000,10572.117872
69850.171588,-148.041188,0.000000,10495.508323
69850.171899,0.000000,148.041188,10342.289223
69850.172210,-148.041188,74.020594,10342.289223
69850.172521,0.000000,-148.041188,10342.289223
69850.172832,74.020594,222.061783,10265.679673
69850.173143,0.000000,148.041188,10418.898773
69850.173454,0.000000,-148.041188,10495.508323
69850.173765,148.041188,0.000000,10265.679673
69850.174075,1036.288319,0.000000,10725.336972
69850.174386,444.123565,-444.123565,10035.851024
69850.174697,222.061783,222.061783,9959.241474
69850.175008,0.000000,0.000000,10572.117872
69850.175319,-148.041188,0.000000,10342.289223
69850.175630,-296.082377,0.000000,10189.070123
69850.175941,148.041188,-148.041188,10342.289223
69850.176252,0.000000,-148.041188,10035.851024
69850.176563,0.000000,0.000000,10418.898773
69850.176874,148.041188,-222.061783,10495.508323
69850.177185,518.144159,74.020594,10189.070123
69850.177496,-74.020594,-592.164754,11031.775171
69850.177806,0.000000,0.000000,10418.898773
69850.178117,0.000000,222.061783,10265.679673
69850.178428,0.000000,-296.082377,10418.898773
69850.178739,0.000000,0.000000,10418.898773
69850.179050,0.000000,0.000000,10112.460574
69850.179361,-222.061783,-222.061783,10112.460574
69850.179672,0.000000,-74.020594,10572.117872
69850.179983,592.164754,222.061783,9499.584175
69850.180294,0.000000,-444.123565,10189.070123
69850.180605,74.020594,0.000000,10342.289223
69850.180916,222.061783,0.000000,10418.898773
69850.181227,592.164754,370.102971,9729.412825
69850.181537,148.041188,0.000000,10112.460574
69850.181848,74.020594,0.000000,10265.679673
69850.182159,0.000000,0.000000,10495.508323
69850.182470,-222.061783,74.020594,10342.289223
69850.182781,-148.041188,222.061783,10035.851024
69850.183092,-296.082377,148.041188,9959.241474
69850.183403,518.144159,74.020594,10418.898773
69850.183714,0.000000,0.000000,10648.727422
69850.184025,0.000000,592.164754,10418.898773
69850.184336,148.041188,0.000000,10112.460574
69850.184647,0.000000,-148.041188,10112.460574
69850.184958,296.082377,222.061783,10112.460574
69850.185268,0.000000,0.000000,10342.289223
69850.185579,296.082377,-666.185348,10648.727422
69850.185890,370.102971,74.020594,10725.336972
69850.186201,296.082377,-370.102971,10265.679673
69850.186512,74.020594,-444.123565,10725.336972
69850.186823,0.000000,0.000000,10112.460574
69850.187134,296.082377,0.000000,10035.851024
69850.187445,148.041188,0.000000,10189.070123
69850.187756,296.082377,0.000000,10265.679673
69850.188067,0.000000,0.000000,10189.070123
69850.188378,-222.061783,74.020594,10342.289223
69850.188689,0.000000,0.000000,10572.117872
69850.189000,-222.061783,74.020594,10189.070123
69850.189311,0.000000,148.041188,10265.679673
69850.189621,0.000000,-148.041188,10342.289223
69850.189932,444.123565,0.000000,10418.898773
69850.190243,666.185348,-148.041188,11108.384721
69850.190554,370.102971,-370.102971,10495.508323
69850.190865,0.000000,0.000000,10495.508323
69850.191176,592.164754,-148.041188,10112.460574
69850.191487,222.061783,0.000000,10189.070123
69850.191798,74.020594,0.000000,10265.679673
69850.192109,0.000000,0.000000,10265.679673
69850.192420,0.000000,74.020594,10189.070123
69850.192731,0.000000,518.144159,10112.460574
69850.193042,0.000000,-444.123565,10035.851024
69850.193353,0.000000,-518.144159,10342.289223
69850.193664,0.000000,0.000000,10572.117872
69850.193975,148.041188,666.185348,10265.679673
69850.194285,148.041188,0.000000,10648.727422
69850.194596,0.000000,0.000000,10418.898773
69850.194907,0.000000,0.000000,10035.851024
69850.195218,148.041188,0.000000,9882.631924
69850.195529,-592.164754,148.041188,10342.289223
69850.195840,0.000000,-296.082377,9959.241474
69850.196151,370.102971,-74.020594,10265.679673
69850.196462,0.000000,0.000000,10189.070123
69850.196773,0.000000,-296.082377,10418.898773
69850.197084,-222.061783,0.000000,10572.117872
69850.197395,0.000000,222.061783,10342.289223
69850.197706,0.000000,0.000000,10189.070123
69850.198017,74.020594,74.020594,10265.679673
69850.198328,592.164754,0.000000,9806.022374
69850.198639,0.000000,0.000000,9882.631924
69850.198949,296.082377,-148.041188,10572.117872
69850.199260,0.000000,-370.102971,9729.412825
69850.199571,74.020594,0.000000,10265.679673
69850.199882,74.020594,0.000000,10495.508323
69850.200193,0.000000,0.000000,10189.070123
69850.200504,0.000000,0.000000,10189.070123
69850.200815,0.000000,-222.061783,10418.898773
69850.201126,0.000000,592.164754,10495.508323
69850.201437,296.082377,-74.020594,10342.289223
69850.201748,296.082377,74.020594,10265.679673
69850.202059,0.000000,518.144159,10342.289223
69850.202370,0.000000,222.061783,10418.898773
69850.202681,296.082377,74.020594,10265.679673
69850.202992,74.020594,74.020594,10112.460574
69850.203302,0.000000,148.041188,10418.898773
69850.203613,0.000000,74.020594,10342.289223
69850.203924,0.000000,296.082377,10955.165621
69850.204235,-518.144159,296.082377,10342.289223
69850.204546,74.020594,0.000000,10418.898773
69850.204857,0.000000,0.000000,9729.412825
69850.205168,0.000000,0.000000,10495.508323
69850.205479,0.000000,-296.082377,10572.117872
69850.205790,0.000000,0.000000,10112.460574
69850.206101,296.082377,74.020594,10265.679673
69850.206412,0.000000,0.000000,10112.460574
69850.206723,0.000000,0.000000,10572.117872
69850.207034,0.000000,74.020594,10342.289223
69850.207345,0.000000,0.000000,9882.631924
69850.207656,0.000000,148.041188,10189.070123
69850.207966,0.000000,0.000000,10418.898773
69850.208277,-518.144159,0.000000,10801.946522
69850.208588,0.000000,-148.041188,10955.165621
69850.208899,518.144159,-518.144159,10189.070123
69850.209210,74.020594,0.000000,10265.679673
69850.209521,0.000000,0.000000,10035.851024
69850.209832,148.041188,296.082377,10342.289223
69850.210143,370.102971,0.000000,10265.679673
69850.210454,0.000000,0.000000,10189.070123
69850.210765,0.000000,444.123565,10035.851024
69850.211076,148.041188,518.144159,10725.336972
69850.211387,-518.144159,-370.102971,10725.336972
69850.211698,-74.020594,222.061783,9959.241474
69850.212009,296.082377,0.000000,10265.679673
69850.212320,148.041188,0.000000,10265.679673
69850.212630,148.041188,0.000000,10955.165621
69850.212941,0.000000,0.000000,10495.508323
69850.213252,0.000000,-148.041188,10112.460574
69850.213563,0.000000,-148.041188,10265.679673
69850.213874,148.041188,0.000000,10648.727422
69850.214185,0.000000,-74.020594,10725.336972
69850.214496,148.041188,518.144159,10878.556072
69850.214807,518.144159,-592.164754,10112.460574
69850.215118,222.061783,-148.041188,10035.851024
69850.215429,296.082377,-222.061783,9882.631924
69850.215740,74.020594,148.041188,10342.289223
69850.216051,0.000000,148.041188,10112.460574
69850.216362,0.000000,0.000000,10035.851024
69850.216673,0.000000,0.000000,10572.117872
69850.216983,370.102971,0.000000,10035.851024
69850.217294,592.164754,222.061783,10495.508323
69850.217605,-296.082377,-666.185348,10112.460574
69850.217916,0.000000,0.000000,10418.898773
69850.218227,148.041188,148.041188,10189.070123
69850.218538,74.020594,-296.082377,9959.241474
69850.218849,0.000000,-148.041188,10342.289223
69850.219160,74.020594,74.020594,10265.679673
69850.219471,148.041188,0.000000,10265.679673
69850.219782,74.020594,-74.020594,10418.898773
69850.220093,0.000000,0.000000,10648.727422
69850.220404,296.082377,74.020594,10648.727422
69850.220715,0.000000,148.041188,10418.898773
69850.221026,148.041188,0.000000,10189.070123
69850.221337,-148.041188,0.000000,10495.508323
69850.221647,0.000000,0.000000,10418.898773
69850.221958,148.041188,0.000000,10189.070123
69850.222269,148.041188,-148.041188,10035.851024
69850.222580,296.082377,-222.061783,10342.289223
69850.222891,74.020594,0.000000,10418.898773
69850.223202,74.020594,0.000000,10342.289223
69850.223513,148.041188,-222.061783,10189.070123
69850.223824,74.020594,-74.020594,10648.727422
69850.224135,74.020594,222.061783,9806.022374
69850.224446,296.082377,74.020594,10265.679673
69850.224757,296.082377,0.000000,10418.898773
69850.225068,0.000000,0.000000,10035.851024
69850.225379,0.000000,444.123565,10648.727422
69850.225690,0.000000,0.000000,10342.289223
69850.226001,0.000000,0.000000,10342.289223
69850.226311,-148.041188,0.000000,10112.460574
69850.226622,0.000000,148.041188,10495.508323
69850.226933,444.123565,0.000000,10418.898773
69850.227244,74.020594,-74.020594,10878.556072
69850.227555,148.041188,-518.144159,10418.898773
69850.227866,222.061783,0.000000,10342.289223
69850.228177,222.061783,-296.082377,10112.460574
69850.228488,0.000000,-222.061783,10265.679673
69850.228799,0.000000,0.000000,10265.679673
69850.229110,74.020594,74.020594,10189.070123
69850.229421,74.020594,0.000000,10035.851024
69850.229732,-74.020594,296.082377,9499.584175
69850.230043,0.000000,444.123565,10112.460574
69850.230354,296.082377,0.000000,10648.727422
69850.230664,-148.041188,0.000000,10572.117872
69850.230975,0.000000,-222.061783,10418.898773
69850.231286,148.041188,0.000000,10189.070123
69850.231597,148.041188,0.000000,10189.070123
69850.231908,0.000000,0.000000,10189.070123
69850.232219,222.061783,0.000000,10265.679673
69850.232530,-296.082377,0.000000,10112.460574
69850.232841,74.020594,0.000000,10265.679673
69850.233152,0.000000,-518.144159,10418.898773
69850.233463,-370.102971,-370.102971,10342.289223
69850.233774,0.000000,296.082377,10189.070123
69850.234085,296.082377,0.000000,10035.851024
69850.234396,0.000000,0.000000,10342.289223
69850.234707,0.000000,0.000000,10112.460574
69850.235018,74.020594,0.000000,9959.241474
69850.235328,-148.041188,0.000000,10418.898773
69850.235639,74.020594,296.082377,10189.070123
69850.235950,0.000000,-148.041188,10495.508323
69850.236261,222.061783,-444.123565,10801.946522
69850.236572,74.020594,0.000000,10265.679673
69850.236883,0.000000,0.000000,10112.460574
69850.237194,0.000000,-148.041188,10265.679673
69850.237505,74.020594,0.000000,10189.070123
69850.237816,222.061783,0.000000,10418.898773
69850.238127,0.000000,-148.041188,10572.117872
69850.238438,0.000000,0.000000,10189.070123
69850.238749,74.020594,-148.041188,10265.679673
69850.239060,148.041188,0.000000,10035.851024
69850.239371,0.000000,0.000000,10265.679673
69850.239682,148.041188,74.020594,10342.289223
69850.239992,0.000000,-148.041188,10342.289223
69850.240303,74.020594,-74.020594,10955.165621
69850.240614,0.000000,0.000000,10495.508323
69850.240925,222.061783,74.020594,9652.803275
69850.241236,0.000000,0.000000,10035.851024
69850.241547,222.061783,0.000000,10342.289223
69850.241858,0.000000,0.000000,10189.070123
69850.242169,0.000000,0.000000,10112.460574
69850.242480,222.061783,222.061783,9806.022374
69850.242791,518.144159,-296.082377,10495.508323
69850.243102,-666.185348,222.061783,9806.022374
69850.243413,-222.061783,296.082377,10189.070123
69850.243724,222.061783,666.185348,10342.289223
69850.244035,0.000000,74.020594,10265.679673
69850.244345,0.000000,0.000000,10265.679673
69850.244656,74.020594,74.020594,10189.070123
69850.244967,0.000000,74.020594,9882.631924
69850.245278,222.061783,444.123565,10112.460574
69850.245589,444.123565,222.061783,10418.898773
69850.245900,-296.082377,0.000000,10035.851024
69850.246211,0.000000,0.000000,10035.851024
69850.246522,74.020594,0.000000,10342.289223
69850.246833,222.061783,0.000000,10189.070123
69850.247144,0.000000,-296.082377,10342.289223
69850.247455,0.000000,74.020594,10342.289223
69850.247766,0.000000,0.000000,10418.898773
69850.248077,0.000000,74.020594,11184.994271
69850.248388,0.000000,0.000000,10112.460574
69850.248699,-592.164754,518.144159,10189.070123
69850.249009,518.144159,-222.061783,10725.336972
69850.249320,0.000000,0.000000,10342.289223
69850.249631,296.082377,0.000000,10572.117872
69850.249942,0.000000,0.000000,10265.679673
69850.250253,296.082377,-370.102971,10342.289223
69850.250564,0.000000,-148.041188,10265.679673
69850.250875,296.082377,518.144159,10725.336972
69850.251186,592.164754,148.041188,10418.898773
69850.251497,592.164754,-148.041188,9806.022374
69850.251808,296.082377,-592.164754,9729.412825
69850.252119,0.000000,0.000000,10189.070123
69850.252430,0.000000,444.123565,10495.508323
69850.252741,0.000000,0.000000,10342.289223
69850.253052,0.000000,222.061783,10342.289223
69850.253363,74.020594,0.000000,10265.679673
69850.253673,0.000000,74.020594,10495.508323
69850.253984,0.000000,740.205942,9729.412825
69850.254295,296.082377,-740.205942,10878.556072
69850.254606,0.000000,222.061783,10342.289223
69850.254917,0.000000,0.000000,10418.898773
69850.255228,0.000000,148.041188,10112.460574
69850.255539,0.000000,-222.061783,10189.070123
69850.255850,74.020594,74.020594,10112.460574
69850.256161,222.061783,222.061783,10342.289223
69850.256472,0.000000,-148.041188,10035.851024
69850.256783,0.000000,0.000000,10112.460574
69850.257094,222.061783,0.000000,10035.851024
69850.257405,74.020594,74.020594,10265.679673
69850.257716,0.000000,0.000000,10189.070123
69850.258026,-296.082377,518.144159,10112.460574
69850.258337,0.000000,1036.288319,10342.289223
69850.258648,0.000000,-74.020594,9806.022374
69850.258959,-370.102971,0.000000,10035.851024
69850.259270,0.000000,148.041188,10342.289223
69850.259581,74.020594,0.000000,10112.460574
69850.259892,148.041188,-296.082377,10418.898773
69850.260203,74.020594,0.000000,9959.241474
69850.260514,370.102971,0.000000,10112.460574
69850.260825,74.020594,518.144159,10035.851024
69850.261136,-296.082377,222.061783,10495.508323
69850.261447,0.000000,0.000000,11031.775171
69850.261758,222.061783,148.041188,9882.631924
69850.262069,296.082377,148.041188,10189.070123
69850.262380,-148.041188,74.020594,10572.117872
69850.262690,-296.082377,0.000000,10725.336972
69850.263001,-222.061783,-370.102971,10265.679673
69850.263312,74.020594,74.020594,10189.070123
69850.263623,74.020594,-148.041188,10418.898773
69850.263934,-592.164754,0.000000,10725.336972
69850.264245,0.000000,0.000000,10572.117872
69850.264556,444.123565,74.020594,10342.289223
69850.264867,518.144159,-222.061783,10035.851024
69850.265178,-222.061783,148.041188,10725.336972
69850.265489,-222.061783,0.000000,10342.289223
69850.265800,0.000000,74.020594,10418.898773
69850.266111,0.000000,74.020594,10189.070123
69850.266422,0.000000,74.020594,10418.898773
69850.266733,222.061783,222.061783,10648.727422
69850.267044,0.000000,0.000000,11184.994271
69850.267354,-148.041188,74.020594,10648.727422
69850.267665,0.000000,74.020594,10112.460574
69850.267976,148.041188,-222.061783,10035.851024
69850.268287,296.082377,-222.061783,10112.460574
69850.268598,0.000000,-222.061783,10112.460574
69850.268909,0.000000,0.000000,10418.898773
69850.269220,222.061783,0.000000,10112.460574
69850.269531,0.000000,-222.061783,9806.022374
69850.269842,-296.082377,148.041188,10035.851024
69850.270153,222.061783,0.000000,11184.994271
69850.270464,0.000000,148.041188,10418.898773
69850.270775,296.082377,296.082377,10112.460574
69850.271086,148.041188,-148.041188,10189.070123
69850.271397,0.000000,0.000000,10342.289223
69850.271707,0.000000,0.000000,10648.727422
69850.272018,0.000000,0.000000,10265.679673
69850.272329,0.000000,0.000000,10189.070123
69850.272640,296.082377,-222.061783,10572.117872
69850.272951,0.000000,0.000000,10342.289223
69850.273262,0.000000,-222.061783,10418.898773
69850.273573,0.000000,0.000000,10572.117872
69850.273884,74.020594,0.000000,9806.022374
69850.274195,74.020594,0.000000,9729.412825
69850.274506,-296.082377,222.061783,10035.851024
69850.274817,0.000000,148.041188,10265.679673
69850.275128,-296.082377,0.000000,10725.336972
69850.275439,0.000000,0.000000,10418.898773
69850.275750,222.061783,148.041188,10265.679673
69850.276061,-222.061783,-148.041188,10342.289223
69850.276371,0.000000,-296.082377,10495.508323
69850.276682,0.000000,0.000000,10342.289223
69850.276993,370.102971,0.000000,10495.508323
69850.277304,222.061783,-518.144159,10342.289223
69850.277615,222.061783,-296.082377,10035.851024
69850.277926,222.061783,296.082377,9959.241474
69850.278237,0.000000,592.164754,10112.460574
69850.278548,370.102971,1554.432478,10495.508323
69850.278859,74.020594,2368.659014,10189.070123
69850.279170,148.041188,2220.617826,11261.603821
69850.279481,74.020594,1110.308913,10648.727422
69850.279792,222.061783,1036.288319,10725.336972
69850.280103,2072.576638,3849.070898,8810.098227
69850.280414,2146.597232,2664.741391,10035.851024
69850.280725,74.020594,962.267725,10342.289223
69850.281035,-296.082377,-1110.308913,10265.679673
69850.281346,148.041188,-1480.411884,10112.460574
69850.281657,1776.494261,444.123565,9346.365076
69850.281968,1924.535449,2220.617826,10342.289223
69850.282279,518.144159,1110.308913,11568.042020
69850.282590,444.123565,296.082377,9499.584175
69850.282901,2072.576638,2516.700203,9806.022374
69850.283212,2442.679609,4367.215058,9806.022374
69850.283523,1406.391290,4589.276840,10342.289223
69850.283834,0.000000,2960.823768,10495.508323
69850.284145,-888.247130,3330.926739,10801.946522
69850.284456,592.164754,3923.091493,11261.603821
69850.284767,962.267725,3182.885551,10725.336972
69850.285078,666.185348,2294.638420,10418.898773
69850.285389,3627.009116,1110.308913,8963.317327
69850.285700,4663.297435,518.144159,9269.755526
69850.286011,3923.091493,1776.494261,8427.050478
69850.286322,4959.379811,4441.235652,9346.365076
69850.286633,2294.638420,2812.782580,11184.994271
69850.286944,-1480.411884,1110.308913,12487.356617
69850.287255,1036.288319,3627.009116,11261.603821
69850.287566,4367.215058,5995.668130,9422.974625
69850.287877,4071.132681,5847.626942,11184.994271
69850.288188,3552.988522,4737.318029,11261.603821
69850.288499,4737.318029,5847.626942,10648.727422
69850.288810,8364.327145,7105.977043,8886.707777
69850.289121,9400.615463,7105.977043,8580.269578
69850.289432,7402.059420,4811.338623,10265.679673
69850.289743,4293.194464,1184.329507,10955.165621
69850.290054,4737.318029,1110.308913,11108.384721
69850.290365,8660.409521,2220.617826,8810.098227
69850.290676,7624.121203,518.144159,8120.612279
69850.290987,2812.782580,-1258.350101,11414.822920
69850.291298,2960.823768,1110.308913,13100.233016
69850.291609,4663.297435,3330.926739,11261.603821
69850.291920,4589.276840,2590.720797,9882.631924
69850.292231,4737.318029,2960.823768,11031.775171
69850.292542,3182.885551,4515.256246,11108.384721
69850.292853,3108.864956,3404.947333,12257.527968
69850.293164,5625.565159,1850.514855,10955.165621
69850.293475,7031.956449,1924.535449,8197.221829
69850.293786,7105.977043,2368.659014,7507.735880
69850.294097,6143.709319,3849.070898,9882.631924
69850.294408,4589.276840,4071.132681,11108.384721
69850.294719,3849.070898,3034.844362,10418.898773
69850.295030,5403.503377,1776.494261,9729.412825
69850.295341,5995.668130,1628.453072,8580.269578
69850.295652,5551.544565,518.144159,9652.803275
69850.295963,4441.235652,666.185348,10265.679673
69850.296274,5551.544565,2368.659014,10035.851024
69850.296584,6735.874072,4737.318029,8886.707777
69850.296895,3849.070898,5181.441594,9806.022374
69850.297206,1184.329507,4737.318029,12563.966167
69850.297517,1332.370696,4515.256246,12640.575717
69850.297828,3330.926739,2368.659014,10342.289223
69850.298139,3997.112087,1776.494261,9116.536426
69850.298450,4737.318029,3478.967927,8427.050478
69850.298761,3256.906145,3552.988522,9499.584175
69850.299072,1184.329507,3404.947333,11951.089769
69850.299383,1776.494261,2664.741391,10725.336972
69850.299694,2738.761985,2220.617826,9729.412825
69850.300005,2220.617826,592.164754,10878.556072
69850.300316,-222.061783,1036.288319,10801.946522
69850.300627,2220.617826,3182.885551,10189.070123
69850.300938,3627.009116,2368.659014,9882.631924
69850.301249,888.247130,-888.247130,10265.679673
69850.301560,-962.267725,-888.247130,9499.584175
69850.301871,740.205942,2664.741391,10648.727422
69850.302182,-666.185348,3849.070898,10725.336972
69850.302493,-1850.514855,3404.947333,10648.727422
69850.302804,-592.164754,4293.194464,11491.432470
69850.303115,-296.082377,814.226536,11031.775171
69850.303426,-2812.782580,-2590.720797,9422.974625
69850.303737,2886.803174,2146.597232,8503.660028
69850.304048,4959.379811,6439.791695,6741.640382
69850.304359,592.164754,518.144159,10112.460574
69850.304670,-5033.400406,-1924.535449,12410.747068
69850.304981,-1850.514855,1406.391290,9499.584175
69850.305292,1258.350101,4367.215058,9116.536426
69850.305603,-2516.700203,814.226536,9652.803275
69850.305914,-6661.853478,74.020594,12487.356617
69850.306225,-4737.318029,1258.350101,14019.547613
69850.306536,-1406.391290,1406.391290,11108.384721
69850.306847,2886.803174,1924.535449,7431.126331
69850.307158,2368.659014,1258.350101,6281.983084
69850.307469,518.144159,1702.473667,10648.727422
69850.307780,-74.020594,1110.308913,13789.718964
69850.308091,-962.267725,1628.453072,9959.241474
69850.308402,1036.288319,1702.473667,7354.516781
69850.308713,2220.617826,2960.823768,9039.926876
69850.309024,-2146.597232,1184.329507,11721.261119
69850.309335,-5033.400406,-2664.741391,13100.233016
69850.309646,0.000000,-3627.009116,11797.870669
69850.309957,3108.864956,0.000000,7277.907231
69850.310268,2738.761985,1184.329507,7814.174080
69850.310579,-814.226536,-2368.659014,10648.727422
69850.310890,-3330.926739,-2294.638420,11568.042020
69850.311201,740.205942,1110.308913,11568.042020
69850.311512,-592.164754,740.205942,9806.022374
69850.311823,-1628.453072,-1332.370696,11108.384721
69850.312134,-814.226536,-518.144159,12410.747068
69850.312445,1332.370696,-1850.514855,9806.022374
69850.312756,3108.864956,-2886.803174,8810.098227
69850.313067,4737.318029,-666.185348,7814.174080
69850.313378,3701.029710,1628.453072,9729.412825
69850.313689,-1258.350101,-2294.638420,12257.527968
69850.314000,-2960.823768,-2368.659014,11108.384721
69850.314311,1480.411884,2886.803174,9422.974625
69850.314622,518.144159,1924.535449,11568.042020
69850.314933,-4811.338623,-2294.638420,14709.033562
69850.315244,-2294.638420,-4811.338623,11414.822920
69850.315555,5255.462188,-962.267725,7048.078582
69850.315866,8512.368333,1776.494261,5132.839837
69850.316177,4663.297435,2886.803174,9806.022374
69850.316488,-2368.659014,2516.700203,13253.452115
69850.316799,-1554.432478,2072.576638,12717.185267
69850.317110,2590.720797,2738.761985,9116.536426
69850.317421,3627.009116,3108.864956,7584.345430
69850.317732,-666.185348,-296.082377,12563.966167
69850.318043,-2590.720797,-2368.659014,14479.204912
69850.318354,3182.885551,518.144159,9882.631924
69850.318665,8586.388927,1110.308913,5132.839837
69850.318976,4737.318029,-1332.370696,7124.688131
69850.319287,-962.267725,74.020594,11951.089769
69850.319598,-1776.494261,1850.514855,14479.204912
69850.319909,-1776.494261,518.144159,12104.308868
69850.320220,-1258.350101,222.061783,9576.193725
69850.320531,1110.308913,1554.432478,10572.117872
69850.320842,-2368.659014,-1776.494261,12334.137518
69850.321153,-2072.576638,-2664.741391,12257.527968
69850.321464,4959.379811,1776.494261,7431.126331
69850.321775,6883.915261,4071.132681,5898.935335
69850.322086,1184.329507,1036.288319,10495.508323
69850.322397,-4071.132681,-666.185348,12717.185267
69850.322708,-3108.864956,592.164754,11568.042020
69850.323019,-2294.638420,0.000000,10342.289223
69850.323330,-1998.556043,-1628.453072,11338.213370
69850.323641,-2072.576638,-2516.700203,11874.480219
69850.323952,444.123565,-3256.906145,9422.974625
69850.324263,4515.256246,-2442.679609,6665.030833
69850.324574,5773.606348,0.000000,6435.202183
69850.324885,2812.782580,2146.597232,9116.536426
69850.325196,-1850.514855,814.226536,12027.699319
69850.325507,-3552.988522,1406.391290,12410.747068
69850.325818,-3552.988522,2516.700203,11031.775171
69850.326129,-2812.782580,1702.473667,12180.918418
69850.326440,-3849.070898,-962.267725,13483.280765
69850.326751,-1258.350101,-1850.514855,11261.603821
69850.327062,3478.967927,666.185348,9116.536426
69850.327373,4737.318029,518.144159,6818.249932
69850.327684,2442.679609,148.041188,9499.584175
69850.327995,-1554.432478,0.000000,11491.432470
69850.328306,-4811.338623,814.226536,12487.356617
69850.328617,-3404.947333,1702.473667,12104.308868
69850.328928,-3923.091493,-1258.350101,11797.870669
69850.329239,-6291.750507,-4589.276840,12334.137518
69850.329550,-1184.329507,-3627.009116,10265.679673
69850.329861,4071.132681,1406.391290,8350.440928
69850.330172,3849.070898,1036.288319,7967.393179
69850.330483,296.082377,-1480.411884,9652.803275
69850.330794,-1332.370696,-1628.453072,10572.117872
69850.331105,-3182.885551,3775.050304,11261.603821
69850.331416,-296.082377,3330.926739,9346.365076
69850.331727,-5773.606348,-518.144159,12793.794817
69850.332038,-5329.482782,-2960.823768,12870.404366
69850.332349,-592.164754,-2812.782580,9422.974625
69850.332660,4959.379811,-1110.308913,5515.887586
69850.332971,5699.585753,-1480.411884,5286.058936
69850.333282,2294.638420,370.102971,9422.974625
69850.333593,-888.247130,444.123565,11951.089769
69850.333904,-1628.453072,148.041188,11951.089769
69850.334215,-1480.411884,0.000000,8656.879127
69850.334526,-2812.782580,296.082377,11261.603821
69850.334837,-4737.318029,-1554.432478,15015.471761
69850.335148,-4663.297435,-1850.514855,12947.013916
69850.335459,3849.070898,-888.247130,7660.954980
69850.335770,6883.915261,-666.185348,5669.106685
69850.336081,4219.173869,1184.329507,8044.002729
69850.336392,0.000000,2294.638420,11951.089769
69850.336703,-1924.535449,3034.844362,13023.623466
69850.337014,0.000000,1332.370696,10955.165621
69850.337325,-1406.391290,370.102971,10648.727422
69850.337636,-3923.091493,-1258.350101,12947.013916
69850.337947,-2516.700203,-2146.597232,13713.109414
69850.338258,4071.132681,-592.164754,10418.898773
69850.338569,7402.059420,814.226536,5515.887586
69850.338880,5699.585753,-518.144159,6588.421283
69850.339191,814.226536,1184.329507,11797.870669
69850.339502,-222.061783,4663.297435,12104.308868
69850.339813,518.144159,2368.659014,10725.336972
69850.340124,-2590.720797,-1628.453072,10801.946522
69850.340435,-3034.844362,-444.123565,12793.794817
69850.340746,-370.102971,1036.288319,12793.794817
69850.341057,1258.350101,-2368.659014,9959.241474
69850.341368,5403.503377,-1702.473667,6358.592633
69850.341679,8142.265362,1776.494261,6052.154434
69850.341989,2960.823768,1628.453072,10725.336972
69850.342300,-2294.638420,74.020594,12257.527968
69850.342611,-1480.411884,1850.514855,10725.336972
69850.342922,-1628.453072,1258.350101,11108.384721
69850.343233,-3701.029710,-2442.679609,12793.794817
69850.343544,-2738.761985,-4219.173869,12717.185267
69850.343855,592.164754,-3701.029710,9422.974625
69850.344166,5255.462188,-962.267725,7354.516781
69850.344477,6661.853478,2294.638420,7660.954980
69850.344788,2072.576638,2442.679609,10418.898773
69850.345099,-1554.432478,1184.329507,11951.089769
69850.345410,-148.041188,1036.288319,12257.527968
69850.345721,-1924.535449,1702.473667,10495.508323
69850.346032,-4367.215058,-444.123565,12410.747068
69850.346343,-2442.679609,-2664.741391,13559.890315
69850.346654,1036.288319,-2590.720797,10801.946522
69850.346965,4515.256246,-1702.473667,6435.202183
69850.347276,5625.565159,-370.102971,6894.859482
69850.347587,2738.761985,2368.659014,9729.412825
69850.347898,0.000000,2960.823768,10189.070123
69850.348209,-2294.638420,1628.453072,11721.261119
69850.348520,-4219.173869,-370.102971,11031.775171
69850.348831,-3330.926739,0.000000,12334.137518
69850.349142,-3701.029710,-2072.576638,12563.966167
69850.349453,-1628.453072,-3775.050304,10265.679673
69850.349764,4145.153275,-1110.308913,6741.640382
69850.350075,5921.647536,2368.659014,6665.030833
69850.350386,1776.494261,2220.617826,9576.193725
69850.350697,-2072.576638,1110.308913,10648.727422
69850.351008,-2664.741391,740.205942,10955.165621
69850.351319,-4145.153275,888.247130,11261.603821
69850.351630,-3849.070898,666.185348,12180.918418
69850.351941,-4145.153275,-2146.597232,13483.280765
69850.352252,-3182.885551,-3997.112087,11797.870669
69850.352563,3256.906145,-3034.844362,7660.954980
69850.352874,6513.812290,-1110.308913,5209.449386
69850.353185,3182.885551,148.041188,7584.345430
69850.353496,-74.020594,1702.473667,11951.089769
69850.353807,-2072.576638,2294.638420,12793.794817
69850.354118,-3849.070898,1258.350101,11951.089769
69850.354429,-4589.276840,222.061783,12104.308868
69850.354740,-4367.215058,-962.267725,12793.794817
69850.355051,-2146.597232,-3404.947333,11568.042020
69850.355362,2368.659014,-3108.864956,8044.002729
69850.355673,5773.606348,666.185348,6665.030833
69850.355984,5699.585753,2664.741391,8120.612279
69850.356295,740.205942,1702.473667,11031.775171
69850.356606,-2664.741391,296.082377,11414.822920
69850.356917,-1850.514855,962.267725,10648.727422
69850.357228,-1184.329507,1924.535449,11721.261119
69850.357539,-2516.700203,-1776.494261,12487.356617
69850.357850,-2590.720797,-5329.482782,11261.603821
69850.358161,2294.638420,-3108.864956,8580.269578
69850.358472,5403.503377,-222.061783,6818.249932
69850.358783,2442.679609,962.267725,8197.221829
69850.359094,-1480.411884,592.164754,10878.556072
69850.359405,-3108.864956,2368.659014,12334.137518
69850.359716,-3182.885551,4367.215058,11721.261119
69850.360027,-3108.864956,2220.617826,12104.308868
69850.360338,-4145.153275,-2294.638420,12257.527968
69850.360649,-1554.432478,-2368.659014,10878.556072
69850.360960,4367.215058,-1258.350101,6818.249932
69850.361271,6661.853478,592.164754,5745.716235
69850.361582,4367.215058,74.020594,7660.954980
69850.361893,1998.556043,1406.391290,10878.556072
69850.362204,-666.185348,1998.556043,11644.651570
69850.362515,-962.267725,518.144159,10189.070123
69850.362826,-1258.350101,-370.102971,10801.946522
69850.363137,-2664.741391,-1998.556043,11644.651570
69850.363448,-1850.514855,-2516.700203,12410.747068
69850.363759,1406.391290,-2442.679609,10112.460574
69850.364070,4663.297435,-1332.370696,7201.297681
69850.364381,2960.823768,0.000000,8656.879127
69850.364692,-1406.391290,1332.370696,11031.775171
69850.365003,-1924.535449,3775.050304,12563.966167
69850.365314,-1184.329507,3997.112087,11951.089769
69850.365625,-1776.494261,1850.514855,11491.432470
69850.365936,-1702.473667,0.000000,11338.213370
69850.366247,-370.102971,-444.123565,10495.508323
69850.366558,2886.803174,-1924.535449,8580.269578
69850.366869,4293.194464,-1110.308913,8197.221829
69850.367180,4219.173869,-592.164754,8427.050478
69850.367491,740.205942,222.061783,9882.631924
69850.367802,-1110.308913,1998.556043,11414.822920
69850.368113,-740.205942,2886.803174,10648.727422
69850.368424,-2516.700203,370.102971,11874.480219
69850.368735,-4145.153275,-1850.514855,13406.671215
69850.369046,-444.123565,-2368.659014,11414.822920
69850.369357,3552.988522,-222.061783,7890.783629
69850.369668,4441.235652,-1480.411884,7584.345430
69850.369979,4145.153275,518.144159,9269.755526
69850.370290,1184.329507,1998.556043,10342.289223
69850.370601,-962.267725,1998.556043,10955.165621
69850.370912,0.000000,2886.803174,10112.460574
69850.371223,-1850.514855,1998.556043,10342.289223
69850.371534,-4441.235652,-296.082377,13713.109414
69850.371845,-1258.350101,-3330.926739,12640.575717
69850.372156,2960.823768,-2590.720797,7890.783629
69850.372467,6365.771101,-2146.597232,4903.011187
69850.372778,4811.338623,-222.061783,7354.516781
69850.373089,222.061783,1406.391290,11797.870669
69850.373400,-888.247130,-74.020594,12180.918418
69850.373711,-3775.050304,666.185348,11951.089769
69850.374022,-1036.288319,2220.617826,9806.022374
69850.374333,-3034.844362,-518.144159,12027.699319
69850.374644,-6143.709319,-4811.338623,13789.718964
69850.374955,-2664.741391,-2886.803174,11261.603821
69850.375266,6217.729913,74.020594,6741.640382
69850.375577,4515.256246,-1258.350101,7201.297681
69850.375888,0.000000,-3478.967927,11184.994271
69850.376199,-3478.967927,3256.906145,11874.480219
69850.376510,4145.153275,4737.318029,8580.269578
69850.376821,-3330.926739,814.226536,12257.527968
69850.377132,-5477.523971,-3034.844362,12180.918418
69850.377443,-1850.514855,-2664.741391,11874.480219
69850.377754,-444.123565,-2368.659014,10725.336972
69850.378065,4145.153275,-1702.473667,6205.373534
69850.378376,5625.565159,1184.329507,6128.763984
69850.378687,0.000000,1702.473667,11184.994271
69850.378998,-3923.091493,1850.514855,14938.862211
69850.379309,-1332.370696,2368.659014,10418.898773
69850.379620,-148.041188,1184.329507,9499.584175
69850.379931,-148.041188,-370.102971,10189.070123
69850.380242,-2072.576638,0.000000,12717.185267
69850.380553,-2294.638420,-2590.720797,11261.603821
69850.380864,1110.308913,-2812.782580,8273.831378
69850.381175,5329.482782,888.247130,7201.297681
69850.381486,444.123565,370.102971,9422.974625
69850.381797,-5477.523971,1184.329507,14632.424012
69850.382108,-3923.091493,2516.700203,13483.280765
69850.382419,-592.164754,3256.906145,10495.508323
69850.382730,-148.041188,-1332.370696,9959.241474
69850.383041,-1998.556043,-4071.132681,11031.775171
69850.383352,814.226536,-1554.432478,10265.679673
69850.383663,5033.400406,-222.061783,7814.174080
69850.383974,5107.421000,-1110.308913,6358.592633
69850.384285,3182.885551,740.205942,8733.488677
69850.384596,-148.041188,2960.823768,11797.870669
69850.384907,-2442.679609,2664.741391,13330.061665
69850.385218,-1184.329507,1702.473667,11491.432470
69850.385529,518.144159,518.144159,9346.365076
69850.385840,-1480.411884,-2294.638420,11414.822920
69850.386151,-1110.308913,-3330.926739,11644.651570
69850.386462,3627.009116,-1998.556043,8810.098227
69850.386773,4145.153275,-1258.350101,6818.249932
69850.387084,1036.288319,-518.144159,9729.412825
69850.387395,-1628.453072,2072.576638,12257.527968
69850.387706,-2368.659014,2886.803174,12257.527968
69850.388017,-2442.679609,3478.967927,11951.089769
69850.388328,-2590.720797,1628.453072,12487.356617
69850.388639,-1184.329507,296.082377,11721.261119
69850.388950,1184.329507,-2960.823768,9729.412825
69850.389261,3330.926739,-2294.638420,7354.516781
69850.389572,5773.606348,814.226536,6894.859482
69850.389883,3034.844362,1702.473667,9346.365076
69850.390194,-2146.597232,592.164754,12640.575717
69850.390505,-2812.782580,1110.308913,12180.918418
69850.390816,518.144159,2886.803174,9806.022374
69850.391127,-518.144159,296.082377,9806.022374
69850.391439,-3478.967927,-2960.823768,12334.137518
69850.391750,-740.205942,-2220.617826,12180.918418
69850.392061,4737.318029,-1184.329507,7660.954980
69850.392372,5699.585753,-1184.329507,5898.935335
69850.392683,1850.514855,-814.226536,8656.879127
69850.392994,-1480.411884,740.205942,12947.013916
69850.393305,-1480.411884,2516.700203,12410.747068
69850.393616,-222.061783,3404.947333,9806.022374
69850.393927,-370.102971,1702.473667,9806.022374
69850.394238,-2664.741391,-962.267725,12334.137518
69850.394549,-2146.597232,-2072.576638,12563.966167
69850.394860,1924.535449,-2146.597232,7967.393179
69850.395171,5329.482782,-444.123565,6511.811733
69850.395482,4145.153275,1480.411884,8656.879127
69850.395794,-962.267725,1036.288319,12257.527968
69850.396105,-3108.864956,1258.350101,13253.452115
69850.396416,222.061783,2146.597232,10112.460574
69850.396727,2072.576638,2072.576638,9269.755526
69850.397038,-2368.659014,-370.102971,11721.261119
69850.397349,-2590.720797,-2590.720797,12717.185267
69850.397660,740.205942,-962.267725,9959.241474
69850.397971,4885.359217,-148.041188,6818.249932
69850.398282,2590.720797,-148.041188,8733.488677
69850.398593,-1776.494261,296.082377,11338.213370
69850.398904,-2738.761985,2368.659014,13023.623466
69850.399215,-888.247130,2886.803174,10801.946522
69850.399526,-518.144159,1850.514855,9652.803275
69850.399837,-2368.659014,-592.164754,11797.870669
69850.400148,-2812.782580,-2072.576638,12104.308868
69850.400460,-148.041188,-1776.494261,9806.022374
69850.400771,4663.297435,-1850.514855,6435.202183
69850.401082,4663.297435,-1110.308913,7890.783629
69850.401393,296.082377,0.000000,10342.289223
69850.401704,-2886.803174,592.164754,12793.794817
69850.402015,-2368.659014,1258.350101,11644.651570
69850.402326,-1702.473667,1554.432478,10342.289223
69850.402637,-2220.617826,444.123565,11721.261119
69850.402948,-2368.659014,-2516.700203,12793.794817
69850.403259,-666.185348,-3182.885551,10035.851024
69850.403570,4367.215058,-1184.329507,6358.592633
69850.403881,4145.153275,-1184.329507,7584.345430
69850.404192,-148.041188,-592.164754,10342.289223
69850.404503,-2812.782580,1110.308913,11951.089769
69850.404814,-2368.659014,1850.514855,11874.480219
69850.405126,-3108.864956,1554.432478,11261.603821
69850.405437,-2368.659014,74.020594,11797.870669
69850.405748,-2220.617826,-2368.659014,12640.575717
69850.406059,592.164754,-4367.215058,9346.365076
69850.406370,5255.462188,-1776.494261,6128.763984
69850.406681,5255.462188,740.205942,7048.078582
69850.406992,-222.061783,74.020594,11568.042020
69850.407303,-3034.844362,1110.308913,14019.547613
69850.407614,-1406.391290,2664.741391,10878.556072
69850.407925,148.041188,2442.679609,10112.460574
69850.408236,-1924.535449,0.000000,11568.042020
69850.408547,-4589.276840,-3182.885551,13789.718964
69850.408858,-1406.391290,-4293.194464,10878.556072
69850.409169,5773.606348,-3182.885551,6281.983084
69850.409481,5477.523971,-444.123565,5669.106685
69850.409792,370.102971,444.123565,10189.070123
69850.410103,-4515.256246,1184.329507,14862.252661
69850.410414,-3256.906145,1998.556043,12793.794817
69850.410725,0.000000,3034.844362,9729.412825
69850.411036,-592.164754,444.123565,10035.851024
69850.411347,-2442.679609,-1110.308913,12334.137518
69850.411658,666.185348,-666.185348,10955.165621
69850.411969,4441.235652,-666.185348,7124.688131
69850.412280,6661.853478,-370.102971,5362.668486
69850.412591,1628.453072,1110.308913,9422.974625
69850.412902,-3552.988522,2738.761985,14632.424012
69850.413213,-3182.885551,2146.597232,12870.404366
69850.413524,-1628.453072,814.226536,9806.022374
69850.413835,-370.102971,-592.164754,9499.584175
69850.414147,-2072.576638,-1702.473667,12257.527968
69850.414458,-740.205942,-2738.761985,12640.575717
69850.414769,3330.926739,-1776.494261,8197.221829
69850.415080,6439.791695,-296.082377,5898.935335
69850.415391,2886.803174,1110.308913,8733.488677
69850.415702,-2146.597232,1998.556043,12640.575717
69850.416013,-4219.173869,3849.070898,12947.013916
69850.416324,-1702.473667,3552.988522,10648.727422
69850.416635,148.041188,1776.494261,9729.412825
69850.416946,-1850.514855,-1480.411884,11721.261119
69850.417257,-1776.494261,-2960.823768,11031.775171
69850.417568,2738.761985,-1036.288319,8810.098227
69850.417879,6217.729913,-148.041188,5515.887586
69850.418190,3256.906145,-518.144159,8044.002729
69850.418502,-2886.803174,-1850.514855,12563.966167
69850.418813,-3849.070898,0.000000,13789.718964
69850.419124,-2146.597232,888.247130,10342.289223
69850.419435,-1998.556043,-1110.308913,9116.536426
69850.419746,-4515.256246,-4219.173869,11491.432470
69850.420057,-3182.885551,-3923.091493,12027.699319
69850.420368,1480.411884,-2812.782580,9959.241474
69850.420679,3108.864956,-2738.761985,6435.202183
69850.420990,2516.700203,-962.267725,7431.126331
69850.421301,-814.226536,740.205942,10342.289223
69850.421612,-4885.359217,-444.123565,13176.842566
69850.421923,-5107.421000,-814.226536,12410.747068
69850.422234,-1924.535449,1258.350101,9882.631924
69850.422545,-1332.370696,2368.659014,11338.213370
69850.422856,-1776.494261,-962.267725,12410.747068
69850.423168,-1554.432478,-5921.647536,9499.584175
69850.423479,1628.453072,-5403.503377,5745.716235
69850.423790,3849.070898,-444.123565,6588.421283
69850.424101,-2442.679609,3256.906145,11874.480219
69850.424412,-9104.533087,-518.144159,16241.224558
69850.424723,-8438.347739,-5181.441594,14632.424012
69850.425034,-2368.659014,-3552.988522,8197.221829
69850.425345,3108.864956,222.061783,6435.202183
69850.425656,1036.288319,-222.061783,9882.631924
69850.425967,-2442.679609,-3330.926739,12793.794817
69850.426278,-296.082377,-3923.091493,9576.193725
69850.426589,2960.823768,-1776.494261,6052.154434
69850.426900,0.000000,444.123565,7584.345430
69850.427211,-7105.977043,1628.453072,13483.280765
69850.427523,-11325.150913,-2368.659014,17620.196454
69850.427834,-9326.594869,-7402.059420,13789.718964
69850.428145,-1850.514855,-7179.997637,6971.469032
69850.428456,1258.350101,-5181.441594,5592.497135
69850.428767,-3330.926739,-4515.256246,9882.631924
69850.429078,-6217.729913,-3923.091493,14019.547613
69850.429389,-2590.720797,-2590.720797,11568.042020
69850.429700,296.082377,-3627.009116,7201.297681
69850.430011,-1036.288319,-4515.256246,8120.612279
69850.430322,-4145.153275,-3478.967927,10725.336972
69850.430633,-4219.173869,-1554.432478,11644.651570
69850.430944,-1110.308913,-1702.473667,9882.631924
69850.431255,296.082377,-2220.617826,8197.221829
69850.431566,-1850.514855,-3997.112087,8810.098227
69850.431877,-3997.112087,-4959.379811,11568.042020
69850.432189,-5033.400406,-5403.503377,10572.117872
69850.432500,-2886.803174,-3997.112087,9576.193725
69850.432811,-3923.091493,-4885.359217,9729.412825
69850.433122,-7920.203579,-6143.709319,12947.013916
69850.433433,-9770.718434,-5477.523971,14325.985813
69850.433744,-6587.832884,-4367.215058,11491.432470
69850.434055,-2294.638420,-2590.720797,8886.707777
69850.434366,518.144159,-1332.370696,8350.440928
69850.434677,-962.267725,-740.205942,10342.289223
69850.434988,-3330.926739,-1924.535449,11644.651570
69850.435299,-2294.638420,-1258.350101,9039.926876
69850.435610,-666.185348,-666.185348,7431.126331
69850.435921,-2960.823768,-2368.659014,9422.974625
69850.436232,-6883.915261,-3997.112087,13330.061665
69850.436544,-7402.059420,-4737.318029,13406.671215
69850.436855,-4737.318029,-5477.523971,10342.289223
69850.437166,-444.123565,-6217.729913,8197.221829
69850.437477,-518.144159,-6883.915261,8886.707777
69850.437788,-3478.967927,-4885.359217,10265.679673
69850.438099,-4737.318029,-3997.112087,11951.089769
69850.438410,-4071.132681,-2516.700203,11184.994271
69850.438721,-3849.070898,-2368.659014,9576.193725
69850.439032,-4811.338623,-3108.864956,10418.898773
69850.439343,-6217.729913,-3330.926739,11951.089769
69850.439654,-5995.668130,-2220.617826,11184.994271
69850.439965,-2442.679609,-1036.288319,10265.679673
69850.440276,-888.247130,-1554.432478,8886.707777
69850.440587,-962.267725,-2738.761985,8350.440928
69850.440898,-1924.535449,-2886.803174,9499.584175
69850.441210,-3404.947333,-2738.761985,10572.117872
69850.441521,-3182.885551,-2738.761985,9882.631924
69850.441832,-2368.659014,-4219.173869,10035.851024
69850.442143,-4219.173869,-5255.462188,10265.679673
69850.442454,-4071.132681,-4663.297435,10495.508323
69850.442765,-3404.947333,-2590.720797,11261.603821
69850.443076,-3923.091493,-1184.329507,11568.042020
69850.443387,-2442.679609,-592.164754,10878.556072
69850.443698,-1480.411884,-962.267725,9882.631924
69850.444009,-2960.823768,-1628.453072,9729.412825
69850.444320,-4515.256246,-1628.453072,11338.213370
69850.444631,-2146.597232,0.000000,11568.042020
69850.444942,-370.102971,444.123565,11031.775171
69850.445253,-518.144159,-1332.370696,9652.803275
69850.445565,-296.082377,-2442.679609,9576.193725
69850.445876,0.000000,-2368.659014,10035.851024
69850.446187,518.144159,-2072.576638,9806.022374
69850.446498,1258.350101,-2072.576638,9116.536426
69850.446809,370.102971,-2368.659014,9576.193725
69850.447120,-1332.370696,-2960.823768,11108.384721
69850.447431,-2072.576638,-2664.741391,11874.480219
69850.447742,-1776.494261,-3849.070898,10495.508323
69850.448053,-74.020594,-4219.173869,10189.070123
69850.448364,-1332.370696,-3923.091493,10418.898773
69850.448675,-1924.535449,-3182.885551,10725.336972
69850.448986,-1184.329507,-2368.659014,10265.679673
69850.449297,-962.267725,-2960.823768,10418.898773
69850.449608,-1776.494261,-4737.318029,10112.460574
69850.449919,-2738.761985,-5107.421000,9959.241474
69850.450231,-3182.885551,-4145.153275,10112.460574
69850.450542,-2516.700203,-4219.173869,10725.336972
69850.450853,-3404.947333,-4811.338623,10572.117872
69850.451164,-3404.947333,-5403.503377,10572.117872
69850.451475,-2738.761985,-5033.400406,9959.241474
69850.451786,-2886.803174,-4959.379811,10648.727422
69850.452097,-3330.926739,-4885.359217,10648.727422
69850.452408,-2960.823768,-4589.276840,9959.241474
69850.452719,-2812.782580,-3256.906145,10112.460574
69850.453030,-3404.947333,-2812.782580,10572.117872
69850.453341,-4515.256246,-2960.823768,10801.946522
69850.453652,-5033.400406,-3627.009116,11108.384721
69850.453963,-3108.864956,-2072.576638,10342.289223
69850.454274,-2368.659014,-2368.659014,9422.974625
69850.454586,-3552.988522,-4515.256246,9806.022374
69850.454897,-4737.318029,-5403.503377,10112.460574
69850.455208,-4293.194464,-4737.318029,9806.022374
69850.455519,-4441.235652,-4737.318029,9269.755526
69850.455830,-6661.853478,-4885.359217,10265.679673
69850.456141,-8290.306550,-3404.947333,11721.261119
69850.456452,-8586.388927,-2294.638420,12793.794817
69850.456763,-8364.327145,-2664.741391,12257.527968
69850.457074,-6365.771101,-3627.009116,10112.460574
69850.457385,-5107.421000,-3627.009116,9193.145976
69850.457696,-3775.050304,-1702.473667,8733.488677
69850.458007,-3849.070898,-2664.741391,9422.974625
69850.458318,-6217.729913,-1554.432478,10648.727422
69850.458629,-4663.297435,0.000000,9422.974625
69850.458940,-5995.668130,-518.144159,11031.775171
69850.459252,-8216.285956,-3330.926739,11491.432470
69850.459563,-6957.935855,-4219.173869,10495.508323
69850.459874,-5329.482782,-5107.421000,10112.460574
69850.460185,-4219.173869,-7179.997637,10265.679673
69850.460496,-3701.029710,-5921.647536,8503.660028
69850.460807,-4663.297435,-4071.132681,7890.783629
69850.461118,-5255.462188,-1850.514855,10648.727422
69850.461429,-6587.832884,-1554.432478,12027.699319
69850.461740,-8512.368333,-1850.514855,12257.527968
69850.462051,-6217.729913,-2664.741391,10878.556072
69850.462362,-3701.029710,-1702.473667,9346.365076
69850.462673,-1628.453072,0.000000,8656.879127
69850.462984,-592.164754,1036.288319,9499.584175
69850.463295,-1110.308913,222.061783,10495.508323
69850.463606,-1258.350101,-2442.679609,9882.631924
69850.463918,-1036.288319,-4145.153275,8963.317327
69850.464229,-888.247130,-4737.318029,8810.098227
69850.464540,-1406.391290,-2886.803174,10265.679673
69850.464851,-3404.947333,-2442.679609,12104.308868
69850.465162,-5625.565159,-3775.050304,13176.842566
69850.465473,-4515.256246,-5255.462188,12257.527968
69850.465784,-3034.844362,-4293.194464,10878.556072
69850.466095,-1184.329507,-1554.432478,9039.926876
69850.466406,296.082377,1998.556043,10342.289223
69850.466717,-1776.494261,2886.803174,11951.089769
69850.467028,-1406.391290,962.267725,12257.527968
69850.467339,1110.308913,-740.205942,11261.603821
69850.467650,3627.009116,222.061783,7201.297681
69850.467961,4219.173869,1110.308913,5975.544884
69850.468273,518.144159,-1850.514855,10189.070123
69850.468584,-4885.359217,-5255.462188,14555.814462
69850.468895,-2368.659014,-3478.967927,12257.527968
69850.469206,1628.453072,-4219.173869,6894.859482
69850.469517,1628.453072,-4885.359217,6205.373534
69850.469828,2516.700203,-1850.514855,9652.803275
69850.470139,1554.432478,-3330.926739,12027.699319
69850.470450,-3775.050304,-3775.050304,12640.575717
69850.470761,1776.494261,814.226536,9422.974625
69850.471072,5107.421000,5773.606348,8733.488677
69850.471383,-2590.720797,2368.659014,12027.699319
69850.471694,-5329.482782,-1184.329507,14785.643111
69850.472005,1480.411884,296.082377,11644.651570
69850.472316,7624.121203,3775.050304,6741.640382
69850.472627,8068.244768,3849.070898,6741.640382
69850.472939,4515.256246,888.247130,9039.926876
69850.473250,2960.823768,-2516.700203,11261.603821
69850.473561,6439.791695,-2886.803174,9422.974625
69850.473872,7105.977043,-1628.453072,6511.811733
69850.474183,2368.659014,-296.082377,8273.831378
69850.474494,-2294.638420,962.267725,14709.033562
69850.474805,-5107.421000,-1184.329507,15934.786358
69850.475116,-4515.256246,-2146.597232,12793.794817
69850.475427,-1036.288319,1258.350101,10035.851024
69850.475738,2072.576638,5625.565159,10648.727422
69850.476049,-1184.329507,3997.112087,13406.671215
69850.476360,-1702.473667,444.123565,10495.508323
69850.476671,5329.482782,2368.659014,6971.469032
69850.476982,8068.244768,5255.462188,5975.544884
69850.477294,2590.720797,1776.494261,10112.460574
69850.477605,-5255.462188,-2146.597232,13176.842566
69850.477916,-1332.370696,-1480.411884,11184.994271
69850.478227,4885.359217,0.000000,6665.030833
69850.478538,3108.864956,-1110.308913,7660.954980
69850.478849,-1702.473667,-3330.926739,12334.137518
69850.479160,-3330.926739,-4219.173869,13483.280765
69850.479471,222.061783,-2960.823768,9729.412825
69850.479782,4441.235652,-222.061783,4290.134789
69850.480093,814.226536,2368.659014,7814.174080
69850.480404,-9252.574275,2072.576638,17160.539155
69850.480715,-11843.295072,2368.659014,18386.291952
69850.481026,-3701.029710,2368.659014,10725.336972
69850.481337,4811.338623,-444.123565,3830.477490
69850.481648,3701.029710,-666.185348,6665.030833
69850.481960,-740.205942,666.185348,10955.165621
69850.482271,0.000000,1480.411884,10955.165621
69850.482582,3701.029710,962.267725,7048.078582
69850.482893,4071.132681,0.000000,4903.011187
69850.483204,-3256.906145,-1036.288319,10572.117872
69850.483515,-9696.697840,-1998.556043,16777.491406
69850.483826,-8068.244768,-1554.432478,15628.348159
69850.484137,-1850.514855,-2442.679609,9269.755526
69850.484448,592.164754,-3330.926739,7277.907231
69850.484759,-518.144159,-3627.009116,10725.336972
69850.485070,-3997.112087,-1702.473667,13483.280765
69850.485381,-1406.391290,518.144159,10418.898773
69850.485692,2812.782580,2664.741391,7201.297681
69850.486003,74.020594,3404.947333,9499.584175
69850.486315,-5847.626942,1184.329507,13713.109414
69850.486626,-6513.812290,-518.144159,13713.109414
69850.486937,-1554.432478,-1480.411884,9576.193725
69850.487248,3552.988522,-1258.350101,6511.811733
69850.487559,3552.988522,-2442.679609,7584.345430
69850.487870,-296.082377,-3182.885551,11491.432470
69850.488181,888.247130,-1332.370696,9576.193725
69850.488492,1776.494261,296.082377,8197.221829
69850.488803,-296.082377,148.041188,9652.803275
69850.489114,-4441.235652,-518.144159,13100.233016
69850.489425,-5181.441594,-1480.411884,14172.766713
69850.489736,-2442.679609,-1628.453072,10648.727422
69850.490047,2294.638420,-1332.370696,8580.269578
69850.490358,2072.576638,-1406.391290,9193.145976
69850.490670,148.041188,-1258.350101,9806.022374
69850.490981,1554.432478,1110.308913,9652.803275
69850.491292,3182.885551,3034.844362,9039.926876
69850.491603,-740.205942,2072.576638,9652.803275
69850.491914,-2738.761985,888.247130,12870.404366
69850.492225,-2294.638420,444.123565,12717.185267
69850.492536,0.000000,222.061783,10495.508323
69850.492847,2368.659014,-1628.453072,9729.412825
69850.493158,1702.473667,-3627.009116,9806.022374
69850.493469,2442.679609,-2368.659014,10035.851024
69850.493780,4885.359217,888.247130,8120.612279
69850.494091,4219.173869,3330.926739,8044.002729
69850.494402,-666.185348,3478.967927,12180.918418
69850.494714,-4219.173869,1332.370696,14938.862211
69850.495025,-1924.535449,888.247130,12717.185267
69850.495336,1924.535449,592.164754,8197.221829
69850.495647,3775.050304,888.247130,8273.831378
69850.495958,1628.453072,0.000000,11644.651570
69850.496269,1554.432478,-1332.370696,11797.870669
69850.496580,5403.503377,-370.102971,7431.126331
69850.496891,7402.059420,1554.432478,5362.668486
69850.497202,2294.638420,2368.659014,10265.679673
69850.497513,-4737.318029,592.164754,15245.300410
69850.497824,-5847.626942,-74.020594,14785.643111
69850.498135,-148.041188,-814.226536,9959.241474
69850.498446,2442.679609,-1628.453072,7660.954980
69850.498758,370.102971,-2442.679609,10035.851024
69850.499069,-444.123565,-962.267725,12027.699319
69850.499380,3701.029710,1924.535449,9729.412825
69850.499691,6587.832884,3701.029710,6894.859482
69850.500002,3404.947333,2368.659014,7967.393179
69850.500313,-3108.864956,1184.329507,12793.794817
69850.500624,-4293.194464,2146.597232,14938.862211
69850.500935,592.164754,1628.453072,11261.603821
69850.501246,2812.782580,-518.144159,7660.954980
69850.501557,962.267725,-2812.782580,9116.536426
69850.501868,-740.205942,-2294.638420,12104.308868
69850.502179,1406.391290,-444.123565,10955.165621
69850.502490,3256.906145,0.000000,7277.907231
69850.502802,1480.411884,962.267725,7584.345430
69850.503113,-2664.741391,888.247130,12334.137518
69850.503424,-7402.059420,814.226536,15475.129060
69850.503735,-4811.338623,222.061783,13023.623466
69850.504046,814.226536,-888.247130,8197.221829
69850.504357,2516.700203,-1332.370696,7584.345430
69850.504668,518.144159,-814.226536,10189.070123
69850.504979,814.226536,2368.659014,9806.022374
69850.505290,3478.967927,3478.967927,8350.440928
69850.505601,2812.782580,2960.823768,8886.707777
69850.505912,1480.411884,1628.453072,10418.898773
69850.506223,-6661.853478,-3108.864956,12870.404366
69850.506535,-4515.256246,-2146.597232,11951.089769
69850.506846,2812.782580,2146.597232,8733.488677
69850.507157,2664.741391,-3775.050304,8733.488677
69850.507468,-4737.318029,-7031.956449,12180.918418
69850.507779,74.020594,-2368.659014,9576.193725
69850.508090,4071.132681,3256.906145,8197.221829
69850.508401,2368.659014,1776.494261,8656.879127
69850.508712,-2812.782580,148.041188,11568.042020
69850.509023,-4367.215058,296.082377,12563.966167
69850.509334,-1924.535449,-666.185348,11261.603821
69850.509645,0.000000,-1332.370696,9269.755526
69850.509956,-1776.494261,-1480.411884,9806.022374
69850.510267,-1554.432478,-1332.370696,12717.185267
69850.510579,1406.391290,0.000000,10878.556072
69850.510890,2368.659014,962.267725,7584.345430
69850.511201,2368.659014,814.226536,7354.516781
69850.511512,-1702.473667,1184.329507,11261.603821
69850.511823,-4885.359217,0.000000,14555.814462
69850.512134,-3923.091493,74.020594,12487.356617
69850.512445,-148.041188,-1480.411884,9193.145976
