#time,accel_x,accel_y,accel_z
69628.902745,0.000000,-74.020594,10418.898773
69628.903056,0.000000,296.082377,10495.508323
69628.903367,148.041188,74.020594,10418.898773
69628.903678,0.000000,0.000000,10342.289223
69628.903989,0.000000,-518.144159,10725.336972
69628.904300,0.000000,0.000000,10572.117872
69628.904611,148.041188,0.000000,10112.460574
69628.904922,0.000000,0.000000,10418.898773
69628.905233,296.082377,-148.041188,10342.289223
69628.905544,370.102971,74.020594,10112.460574
69628.905855,444.123565,74.020594,10418.898773
69628.906166,222.061783,0.000000,10112.460574
69628.906477,148.041188,148.041188,9652.803275
69628.906788,296.082377,74.020594,10342.289223
69628.907099,-148.041188,0.000000,10265.679673
69628.907410,0.000000,0.000000,10342.289223
69628.907721,0.000000,0.000000,10572.117872
69628.908032,-222.061783,0.000000,10342.289223
69628.908343,0.000000,-222.061783,10648.727422
69628.908654,148.041188,0.000000,10418.898773
69628.908965,0.000000,0.000000,10035.851024
69628.909276,222.061783,-296.082377,10189.070123
69628.909587,148.041188,0.000000,10495.508323
69628.909898,222.061783,0.000000,10189.070123
69628.910209,-296.082377,0.000000,10495.508323
69628.910520,518.144159,-370.102971,10648.727422
69628.910831,74.020594,0.000000,10495.508323
69628.911142,0.000000,148.041188,10648.727422
69628.911453,-148.041188,0.000000,10342.289223
69628.911764,-222.061783,0.000000,10418.898773
69628.912075,0.000000,0.000000,10342.289223
69628.912386,74.020594,0.000000,10265.679673
69628.912697,0.000000,296.082377,10342.289223
69628.913008,740.205942,0.000000,10265.679673
69628.913319,0.000000,-592.164754,10572.117872
69628.913630,74.020594,-148.041188,10189.070123
69628.913941,148.041188,148.041188,10112.460574
69628.914252,-666.185348,0.000000,10035.851024
69628.914563,-444.123565,0.000000,10418.898773
69628.914874,0.000000,0.000000,10342.289223
69628.915185,0.000000,0.000000,10035.851024
69628.915496,0.000000,74.020594,10189.070123
69628.915807,296.082377,-370.102971,10572.117872
69628.916119,0.000000,0.000000,10572.117872
69628.916430,0.000000,222.061783,10495.508323
69628.916741,222.061783,0.000000,10112.460574
69628.917052,444.123565,74.020594,10265.679673
69628.917363,74.020594,-296.082377,10265.679673
69628.917674,0.000000,0.000000,10265.679673
69628.917985,0.000000,0.000000,10342.289223
69628.918296,74.020594,-148.041188,10265.679673
69628.918607,-222.061783,0.000000,10342.289223
69628.918918,148.041188,222.061783,10418.898773
69628.919229,-370.102971,0.000000,10035.851024
69628.919540,0.000000,0.000000,10189.070123
69628.919851,518.144159,74.020594,9652.803275
69628.920162,222.061783,0.000000,9959.241474
69628.920473,0.000000,-222.061783,10418.898773
69628.920784,0.000000,74.020594,10572.117872
69628.921095,148.041188,0.000000,10418.898773
69628.921406,518.144159,-444.123565,10342.289223
69628.921717,148.041188,-74.020594,9959.241474
69628.922028,-370.102971,0.000000,10725.336972
69628.922339,-222.061783,74.020594,10801.946522
69628.922650,0.000000,0.000000,10495.508323
69628.922961,148.041188,0.000000,10189.070123
69628.923272,0.000000,0.000000,10189.070123
69628.923583,74.020594,0.000000,10112.460574
69628.923894,222.061783,74.020594,10112.460574
69628.924205,0.000000,74.020594,10112.460574
69628.924516,0.000000,222.061783,10342.289223
69628.924827,666.185348,-222.061783,9729.412825
69628.925138,0.000000,-222.061783,9959.241474
69628.925449,0.000000,222.061783,10572.117872
69628.925760,74.020594,0.000000,10495.508323
69628.926071,0.000000,0.000000,10648.727422
69628.926382,-370.102971,0.000000,10265.679673
69628.926693,0.000000,0.000000,10572.117872
69628.927004,222.061783,-370.102971,10572.117872
69628.927315,0.000000,0.000000,9959.241474
69628.927626,222.061783,148.041188,10265.679673
69628.927937,0.000000,0.000000,10112.460574
69628.928248,0.000000,0.000000,10648.727422
69628.928559,0.000000,296.082377,9729.412825
69628.928870,296.082377,-370.102971,9576.193725
69628.929181,0.000000,444.123565,9729.412825
69628.929492,-222.061783,148.041188,10495.508323
69628.929803,-222.061783,148.041188,10418.898773
69628.930114,-296.082377,-148.041188,10189.070123
69628.930425,148.041188,0.000000,10112.460574
69628.930736,222.061783,148.041188,10189.070123
69628.931047,148.041188,222.061783,10342.289223
69628.931358,0.000000,0.000000,10035.851024
69628.931669,148.041188,296.082377,9806.022374
69628.931980,0.000000,-518.144159,10112.460574
69628.932291,0.000000,0.000000,10189.070123
69628.932602,296.082377,0.000000,9806.022374
69628.932913,0.000000,0.000000,10572.117872
69628.933224,0.000000,0.000000,10265.679673
69628.933535,0.000000,-296.082377,10342.289223
69628.933846,0.000000,0.000000,10342.289223
69628.934157,814.226536,-592.164754,10342.289223
69628.934468,592.164754,148.041188,9499.584175
69628.934779,0.000000,148.041188,9882.631924
69628.935090,0.000000,74.020594,9959.241474
69628.935401,0.000000,148.041188,10265.679673
69628.935712,148.041188,0.000000,9959.241474
69628.936023,0.000000,0.000000,10265.679673
69628.936334,0.000000,0.000000,10418.898773
69628.936645,0.000000,0.000000,10418.898773
69628.936956,148.041188,518.144159,11108.384721
69628.937267,148.041188,0.000000,10878.556072
69628.937578,592.164754,0.000000,10725.336972
69628.937889,0.000000,0.000000,10189.070123
69628.938200,74.020594,0.000000,10495.508323
69628.938511,0.000000,148.041188,10648.727422
69628.938822,-222.061783,0.000000,10265.679673
69628.939133,0.000000,74.020594,10342.289223
69628.939444,0.000000,0.000000,10342.289223
69628.939755,74.020594,0.000000,9806.022374
69628.940066,-444.123565,0.000000,10342.289223
69628.940377,74.020594,74.020594,9882.631924
69628.940688,444.123565,-296.082377,10725.336972
69628.940999,0.000000,148.041188,10112.460574
69628.941310,0.000000,0.000000,9959.241474
69628.941621,0.000000,0.000000,10342.289223
69628.941932,74.020594,0.000000,10342.289223
69628.942243,0.000000,0.000000,10265.679673
69628.942554,0.000000,0.000000,9959.241474
69628.942865,-370.102971,0.000000,10648.727422
69628.943176,0.000000,296.082377,10648.727422
69628.943487,-296.082377,0.000000,10342.289223
69628.943798,0.000000,148.041188,10189.070123
69628.944109,148.041188,-296.082377,10342.289223
69628.944420,74.020594,0.000000,10572.117872
69628.944731,0.000000,0.000000,10418.898773
69628.945042,0.000000,0.000000,10265.679673
69628.945353,0.000000,296.082377,10418.898773
69628.945664,0.000000,-148.041188,10418.898773
69628.945975,0.000000,-222.061783,10112.460574
69628.946286,0.000000,0.000000,10112.460574
69628.946597,74.020594,0.000000,10342.289223
69628.946908,148.041188,0.000000,10572.117872
69628.947219,222.061783,-296.082377,10801.946522
69628.947530,0.000000,-74.020594,9729.412825
69628.947841,74.020594,0.000000,10342.289223
69628.948152,74.020594,0.000000,10189.070123
69628.948463,148.041188,0.000000,10495.508323
69628.948774,0.000000,0.000000,10189.070123
69628.949085,0.000000,0.000000,10342.289223
69628.949396,0.000000,0.000000,10035.851024
69628.949707,74.020594,0.000000,11184.994271
69628.950018,-666.185348,-296.082377,10035.851024
69628.950329,0.000000,0.000000,10189.070123
69628.950640,-148.041188,0.000000,10418.898773
69628.950951,148.041188,-148.041188,10342.289223
69628.951262,0.000000,0.000000,10418.898773
69628.951573,0.000000,148.041188,10572.117872
69628.951884,148.041188,0.000000,9959.241474
69628.952195,0.000000,0.000000,10418.898773
69628.952506,296.082377,-444.123565,10955.165621
69628.952817,-222.061783,518.144159,10572.117872
69628.953128,-370.102971,148.041188,10955.165621
69628.953439,-74.020594,0.000000,10955.165621
69628.953750,0.000000,0.000000,10495.508323
69628.954061,0.000000,-370.102971,10189.070123
69628.954372,0.000000,0.000000,10342.289223
69628.954683,74.020594,0.000000,10265.679673
69628.954994,0.000000,-148.041188,10342.289223
69628.955305,148.041188,0.000000,10495.508323
69628.955616,0.000000,74.020594,10342.289223
69628.955927,518.144159,296.082377,11031.775171
69628.956238,-296.082377,-74.020594,10342.289223
69628.956549,0.000000,0.000000,10495.508323
69628.956860,222.061783,74.020594,10342.289223
69628.957171,222.061783,74.020594,10265.679673
69628.957482,0.000000,0.000000,10342.289223
69628.957794,-370.102971,0.000000,10342.289223
69628.958105,0.000000,0.000000,10572.117872
69628.958416,0.000000,-148.041188,10725.336972
69628.958727,370.102971,0.000000,10418.898773
69628.959038,74.020594,0.000000,9729.412825
69628.959349,222.061783,0.000000,10112.460574
69628.959660,222.061783,-222.061783,9882.631924
69628.959971,0.000000,74.020594,10265.679673
69628.960282,0.000000,0.000000,10035.851024
69628.960593,0.000000,74.020594,10189.070123
69628.960904,222.061783,-222.061783,10418.898773
69628.961215,0.000000,-296.082377,10495.508323
69628.961526,-148.041188,0.000000,10418.898773
69628.961837,0.000000,0.000000,10648.727422
69628.962148,222.061783,0.000000,9806.022374
69628.962459,-370.102971,444.123565,10112.460574
69628.962770,-296.082377,-222.061783,10265.679673
69628.963081,148.041188,0.000000,9806.022374
69628.963392,74.020594,74.020594,10035.851024
69628.963704,370.102971,0.000000,10112.460574
69628.964015,-222.061783,0.000000,10189.070123
69628.964326,0.000000,0.000000,10495.508323
69628.964637,148.041188,0.000000,10418.898773
69628.964948,0.000000,0.000000,10495.508323
69628.965259,-74.020594,0.000000,10342.289223
69628.965570,-222.061783,-592.164754,10189.070123
69628.965881,-296.082377,74.020594,10265.679673
69628.966192,518.144159,-444.123565,10648.727422
69628.966503,74.020594,-148.041188,10265.679673
69628.966814,370.102971,74.020594,10189.070123
69628.967125,296.082377,74.020594,10265.679673
69628.967436,222.061783,0.000000,10418.898773
69628.967747,0.000000,0.000000,10035.851024
69628.968058,222.061783,0.000000,10035.851024
69628.968369,-666.185348,0.000000,10112.460574
69628.968680,-740.205942,222.061783,10648.727422
69628.968991,0.000000,74.020594,10342.289223
69628.969302,148.041188,-148.041188,9959.241474
69628.969614,370.102971,-222.061783,9422.974625
69628.969925,0.000000,0.000000,10265.679673
69628.970236,0.000000,-222.061783,10495.508323
69628.970547,148.041188,0.000000,10648.727422
69628.970858,444.123565,0.000000,10112.460574
69628.971169,0.000000,74.020594,10112.460574
69628.971480,222.061783,444.123565,10035.851024
69628.971791,-296.082377,74.020594,11031.775171
69628.972102,-222.061783,74.020594,10418.898773
69628.972413,74.020594,222.061783,10418.898773
69628.972724,0.000000,0.000000,10495.508323
69628.973035,-148.041188,-148.041188,10648.727422
69628.973346,-296.082377,0.000000,10342.289223
69628.973657,0.000000,-148.041188,9959.241474
69628.973968,148.041188,-666.185348,9882.631924
69628.974279,444.123565,-370.102971,9729.412825
69628.974590,370.102971,-518.144159,10418.898773
69628.974901,-222.061783,74.020594,10648.727422
69628.975212,148.041188,296.082377,10342.289223
69628.975524,148.041188,0.000000,10418.898773
69628.975835,-148.041188,0.000000,10572.117872
69628.976146,-296.082377,0.000000,10495.508323
69628.976457,0.000000,0.000000,10418.898773
69628.976768,0.000000,0.000000,10189.070123
69628.977079,0.000000,0.000000,10342.289223
69628.977390,0.000000,-148.041188,10265.679673
69628.977701,74.020594,0.000000,10342.289223
69628.978012,0.000000,0.000000,10265.679673
69628.978323,0.000000,-592.164754,11031.775171
69628.978634,444.123565,0.000000,10495.508323
69628.978945,74.020594,222.061783,9806.022374
69628.979256,0.000000,-148.041188,10342.289223
69628.979567,0.000000,0.000000,10189.070123
69628.979878,0.000000,0.000000,10189.070123
69628.980189,74.020594,148.041188,10342.289223
69628.980500,74.020594,296.082377,10572.117872
69628.980811,0.000000,-148.041188,10418.898773
69628.981122,592.164754,-296.082377,10112.460574
69628.981434,-296.082377,296.082377,10265.679673
69628.981745,0.000000,222.061783,10648.727422
69628.982056,74.020594,0.000000,10495.508323
69628.982367,0.000000,0.000000,10801.946522
69628.982678,0.000000,0.000000,10265.679673
69628.982989,148.041188,0.000000,10189.070123
69628.983300,74.020594,148.041188,10112.460574
69628.983611,0.000000,0.000000,10495.508323
69628.983922,0.000000,0.000000,9882.631924
69628.984233,0.000000,-148.041188,10495.508323
69628.984544,370.102971,-74.020594,10112.460574
69628.984855,222.061783,-296.082377,10035.851024
69628.985166,-296.082377,148.041188,10189.070123
69628.985477,296.082377,-148.041188,10112.460574
69628.985788,148.041188,0.000000,10342.289223
69628.986099,0.000000,-148.041188,10265.679673
69628.986410,0.000000,-148.041188,10189.070123
69628.986721,370.102971,-148.041188,10955.165621
69628.987032,74.020594,222.061783,10035.851024
69628.987344,148.041188,-74.020594,10648.727422
69628.987655,-296.082377,222.061783,9806.022374
69628.987966,0.000000,0.000000,10572.117872
69628.988277,444.123565,0.000000,10342.289223
69628.988588,74.020594,0.000000,10495.508323
69628.988899,0.000000,0.000000,10035.851024
69628.989210,148.041188,148.041188,10189.070123
69628.989521,148.041188,0.000000,9576.193725
69628.989832,592.164754,-592.164754,10801.946522
69628.990143,74.020594,-296.082377,10725.336972
69628.990454,-74.020594,0.000000,9806.022374
69628.990765,0.000000,0.000000,9959.241474
69628.991076,222.061783,0.000000,10189.070123
69628.991387,0.000000,0.000000,10495.508323
69628.991698,222.061783,0.000000,10189.070123
69628.992009,370.102971,0.000000,10112.460574
69628.992320,444.123565,0.000000,9499.584175
69628.992631,0.000000,370.102971,9959.241474
69628.992942,-370.102971,-74.020594,10035.851024
69628.993254,0.000000,444.123565,10265.679673
69628.993565,0.000000,148.041188,10112.460574
69628.993876,0.000000,74.020594,10112.460574
69628.994187,-222.061783,0.000000,10648.727422
69628.994498,-148.041188,0.000000,10342.289223
69628.994809,148.041188,0.000000,10265.679673
69628.995120,222.061783,0.000000,9499.584175
69628.995431,444.123565,74.020594,10112.460574
69628.995742,74.020594,0.000000,10418.898773
69628.996053,0.000000,0.000000,10418.898773
69628.996364,74.020594,0.000000,10265.679673
69628.996675,518.144159,814.226536,10112.460574
69628.996986,0.000000,-814.226536,10878.556072
69628.997297,74.020594,-518.144159,10265.679673
69628.997608,-74.020594,-148.041188,10648.727422
69628.997919,0.000000,0.000000,10418.898773
69628.998230,0.000000,-148.041188,10189.070123
69628.998541,296.082377,0.000000,10189.070123
69628.998852,148.041188,0.000000,10342.289223
69628.999164,74.020594,74.020594,10265.679673
69628.999475,296.082377,518.144159,10955.165621
69628.999786,222.061783,-296.082377,10342.289223
69629.000097,444.123565,0.000000,10418.898773
69629.000408,74.020594,222.061783,10342.289223
69629.000719,-296.082377,74.020594,10572.117872
69629.001030,-296.082377,-148.041188,10265.679673
69629.001341,0.000000,0.000000,10265.679673
69629.001652,74.020594,0.000000,10265.679673
69629.001963,0.000000,0.000000,10265.679673
69629.002274,-148.041188,296.082377,10342.289223
69629.002585,0.000000,-148.041188,10342.289223
69629.002896,148.041188,0.000000,10495.508323
69629.003207,444.123565,-370.102971,10878.556072
69629.003518,0.000000,0.000000,10189.070123
69629.003829,-222.061783,296.082377,9806.022374
69629.004140,74.020594,74.020594,10418.898773
69629.004451,0.000000,0.000000,10265.679673
69629.004762,0.000000,0.000000,10189.070123
69629.005074,0.000000,-148.041188,10342.289223
69629.005385,-148.041188,222.061783,9806.022374
69629.005696,-592.164754,222.061783,10418.898773
69629.006007,518.144159,74.020594,10035.851024
69629.006318,74.020594,0.000000,10265.679673
69629.006629,444.123565,296.082377,10495.508323
69629.006940,148.041188,0.000000,10418.898773
69629.007251,74.020594,-148.041188,10189.070123
69629.007562,74.020594,74.020594,10495.508323
69629.007873,0.000000,0.000000,10725.336972
69629.008184,0.000000,-666.185348,10342.289223
69629.008495,-666.185348,-74.020594,10495.508323
69629.008806,0.000000,-518.144159,10418.898773
69629.009117,370.102971,0.000000,10418.898773
69629.009428,148.041188,148.041188,10265.679673
69629.009739,0.000000,0.000000,10265.679673
69629.010050,148.041188,-148.041188,10342.289223
69629.010361,0.000000,0.000000,10035.851024
69629.010672,296.082377,0.000000,10189.070123
69629.010984,222.061783,-296.082377,9806.022374
69629.011295,-148.041188,0.000000,10495.508323
69629.011606,-148.041188,0.000000,10725.336972
69629.011917,0.000000,0.000000,10725.336972
69629.012228,148.041188,0.000000,10418.898773
69629.012539,0.000000,0.000000,10189.070123
69629.012850,-148.041188,444.123565,10342.289223
69629.013161,296.082377,222.061783,10878.556072
69629.013472,74.020594,-296.082377,10035.851024
69629.013783,296.082377,0.000000,9882.631924
69629.014094,148.041188,0.000000,10112.460574
69629.014405,0.000000,148.041188,10418.898773
69629.014716,0.000000,0.000000,10265.679673
69629.015027,-74.020594,74.020594,10035.851024
69629.015338,-296.082377,0.000000,10572.117872
69629.015649,370.102971,-592.164754,10189.070123
69629.015960,74.020594,0.000000,10955.165621
69629.016271,0.000000,0.000000,10265.679673
69629.016582,592.164754,148.041188,9576.193725
69629.016894,148.041188,222.061783,10265.679673
69629.017205,0.000000,-296.082377,10112.460574
69629.017516,148.041188,-222.061783,10265.679673
69629.017827,74.020594,0.000000,10342.289223
69629.018138,444.123565,0.000000,10342.289223
69629.018449,0.000000,370.102971,10342.289223
69629.018760,222.061783,0.000000,10112.460574
69629.019071,0.000000,0.000000,10189.070123
69629.019382,74.020594,222.061783,10112.460574
69629.019693,74.020594,0.000000,10418.898773
69629.020004,0.000000,0.000000,10418.898773
69629.020315,222.061783,0.000000,10342.289223
69629.020626,148.041188,0.000000,10112.460574
69629.020937,518.144159,-222.061783,10189.070123
69629.021248,0.000000,0.000000,10112.460574
69629.021559,0.000000,296.082377,10418.898773
69629.021870,74.020594,0.000000,9959.241474
69629.022181,0.000000,0.000000,10955.165621
69629.022492,0.000000,0.000000,10418.898773
69629.022803,0.000000,-148.041188,10035.851024
69629.023115,74.020594,-148.041188,9959.241474
69629.023426,0.000000,0.000000,10342.289223
69629.023737,148.041188,0.000000,9729.412825
69629.024048,518.144159,0.000000,10725.336972
69629.024359,222.061783,0.000000,10265.679673
69629.024670,222.061783,-296.082377,10572.117872
69629.024981,74.020594,0.000000,10955.165621
69629.025292,74.020594,0.000000,10418.898773
69629.025603,74.020594,0.000000,10112.460574
69629.025914,0.000000,-370.102971,10189.070123
69629.026225,0.000000,0.000000,10265.679673
69629.026536,74.020594,296.082377,10112.460574
69629.026847,0.000000,0.000000,10265.679673
69629.027158,0.000000,0.000000,10495.508323
69629.027469,148.041188,0.000000,10112.460574
69629.027780,370.102971,0.000000,10189.070123
69629.028091,222.061783,888.247130,10112.460574
69629.028402,0.000000,-740.205942,10418.898773
69629.028713,-148.041188,0.000000,10418.898773
69629.029025,0.000000,0.000000,10418.898773
69629.029336,-222.061783,74.020594,10495.508323
69629.029647,0.000000,-296.082377,10418.898773
69629.029958,148.041188,0.000000,10342.289223
69629.030269,0.000000,148.041188,10112.460574
69629.030580,0.000000,0.000000,10189.070123
69629.030891,-592.164754,444.123565,10572.117872
69629.031202,518.144159,0.000000,9882.631924
69629.031513,74.020594,296.082377,10112.460574
69629.031824,0.000000,0.000000,10418.898773
69629.032135,148.041188,-296.082377,10418.898773
69629.032446,148.041188,148.041188,10495.508323
69629.032757,74.020594,0.000000,10265.679673
69629.033068,-222.061783,0.000000,10572.117872
69629.033379,0.000000,0.000000,10342.289223
69629.033690,0.000000,-296.082377,10189.070123
69629.034001,74.020594,-296.082377,10495.508323
69629.034312,518.144159,-592.164754,10725.336972
69629.034623,296.082377,0.000000,10265.679673
69629.034935,222.061783,0.000000,10189.070123
69629.035246,148.041188,0.000000,10342.289223
69629.035557,0.000000,0.000000,10265.679673
69629.035868,0.000000,0.000000,10418.898773
69629.036179,-222.061783,222.061783,10342.289223
69629.036490,148.041188,0.000000,10265.679673
69629.036801,-888.247130,-296.082377,10112.460574
69629.037112,-296.082377,222.061783,9959.241474
69629.037423,222.061783,148.041188,10418.898773
69629.037734,148.041188,0.000000,10112.460574
69629.038045,444.123565,-222.061783,10189.070123
69629.038356,148.041188,0.000000,10035.851024
69629.038667,444.123565,0.000000,10035.851024
69629.038978,370.102971,0.000000,10112.460574
69629.039289,296.082377,370.102971,10035.851024
69629.039600,0.000000,-148.041188,10265.679673
69629.039911,-148.041188,518.144159,10342.289223
69629.040222,222.061783,-592.164754,9882.631924
69629.040533,0.000000,0.000000,10418.898773
69629.040845,-148.041188,0.000000,10801.946522
69629.041156,0.000000,0.000000,10572.117872
69629.041467,296.082377,0.000000,10342.289223
69629.041778,74.020594,0.000000,10112.460574
69629.042089,296.082377,74.020594,10878.556072
69629.042400,666.185348,148.041188,10572.117872
69629.042711,296.082377,0.000000,10035.851024
69629.043022,296.082377,-148.041188,9499.584175
69629.043333,0.000000,-296.082377,9959.241474
69629.043644,-296.082377,74.020594,10955.165621
69629.043955,0.000000,74.020594,10495.508323
69629.044266,-444.123565,0.000000,10495.508323
69629.044577,0.000000,0.000000,10495.508323
69629.044888,0.000000,0.000000,10495.508323
69629.045199,74.020594,0.000000,10189.070123
69629.045510,222.061783,0.000000,10418.898773
69629.045821,222.061783,0.000000,10342.289223
69629.046132,222.061783,0.000000,10189.070123
69629.046443,0.000000,-740.205942,9806.022374
69629.046755,0.000000,296.082377,9882.631924
69629.047066,-74.020594,74.020594,10418.898773
69629.047377,0.000000,74.020594,10342.289223
69629.047688,0.000000,-148.041188,10189.070123
69629.047999,74.020594,-222.061783,10265.679673
69629.048310,0.000000,0.000000,10265.679673
69629.048621,0.000000,0.000000,10342.289223
69629.048932,0.000000,74.020594,10265.679673
69629.049243,222.061783,222.061783,10418.898773
69629.049554,0.000000,0.000000,9806.022374
69629.049865,148.041188,0.000000,10572.117872
69629.050176,74.020594,-444.123565,10648.727422
69629.050487,0.000000,0.000000,10265.679673
69629.050798,0.000000,0.000000,10495.508323
69629.051109,74.020594,-148.041188,10035.851024
69629.051420,-296.082377,0.000000,10648.727422
69629.051731,-148.041188,74.020594,10265.679673
69629.052042,0.000000,148.041188,10725.336972
69629.052353,-370.102971,-222.061783,10342.289223
69629.052665,148.041188,-74.020594,10112.460574
69629.052976,296.082377,-444.123565,10112.460574
69629.053287,74.020594,74.020594,10495.508323
69629.053598,296.082377,0.000000,10112.460574
69629.053909,148.041188,0.000000,10572.117872
69629.054220,0.000000,0.000000,10189.070123
69629.054531,0.000000,0.000000,10418.898773
69629.054842,74.020594,0.000000,10418.898773
69629.055153,-296.082377,-74.020594,10418.898773
69629.055464,148.041188,0.000000,10035.851024
69629.055775,-296.082377,518.144159,10112.460574
69629.056086,0.000000,0.000000,9882.631924
69629.056397,0.000000,0.000000,10189.070123
69629.056708,148.041188,0.000000,10342.289223
69629.057019,148.041188,0.000000,10189.070123
69629.057330,0.000000,-148.041188,10035.851024
69629.057641,0.000000,-296.082377,10189.070123
69629.057952,222.061783,0.000000,9652.803275
69629.058263,74.020594,148.041188,10801.946522
69629.058575,0.000000,0.000000,9729.412825
69629.058886,-370.102971,0.000000,10418.898773
69629.059197,0.000000,0.000000,10418.898773
69629.059508,0.000000,74.020594,10418.898773
69629.059819,0.000000,0.000000,10112.460574
69629.060130,0.000000,74.020594,10265.679673
69629.060441,148.041188,0.000000,10035.851024
69629.060752,-148.041188,0.000000,10495.508323
69629.061063,148.041188,-148.041188,10265.679673
69629.061374,74.020594,0.000000,10265.679673
69629.061685,74.020594,0.000000,10342.289223
69629.061996,74.020594,296.082377,10342.289223
69629.062307,0.000000,0.000000,10418.898773
69629.062618,-148.041188,-296.082377,10572.117872
69629.062930,0.000000,0.000000,10189.070123
69629.063241,222.061783,74.020594,10342.289223
69629.063552,592.164754,222.061783,10035.851024
69629.063863,0.000000,148.041188,10418.898773
69629.064174,0.000000,0.000000,10495.508323
69629.064485,74.020594,0.000000,10265.679673
69629.064796,148.041188,0.000000,10342.289223
69629.065107,0.000000,0.000000,10265.679673
69629.065418,0.000000,0.000000,10189.070123
69629.065729,-814.226536,222.061783,9806.022374
69629.066040,0.000000,74.020594,10342.289223
69629.066351,0.000000,222.061783,10265.679673
69629.066662,74.020594,-222.061783,10189.070123
69629.066973,0.000000,0.000000,10265.679673
69629.067285,74.020594,0.000000,10265.679673
69629.067596,222.061783,222.061783,10189.070123
69629.067907,148.041188,74.020594,10265.679673
69629.068218,-296.082377,0.000000,10418.898773
69629.068529,0.000000,-222.061783,10189.070123
69629.068840,-148.041188,74.020594,10265.679673
69629.069151,0.000000,74.020594,10801.946522
69629.069462,0.000000,0.000000,10342.289223
69629.069773,0.000000,0.000000,10342.289223
69629.070084,0.000000,0.000000,10418.898773
69629.070395,74.020594,0.000000,10495.508323
69629.070706,0.000000,0.000000,10418.898773
69629.071017,296.082377,0.000000,9346.365076
69629.071329,0.000000,0.000000,9806.022374
69629.071640,0.000000,0.000000,10418.898773
69629.071951,0.000000,0.000000,9806.022374
69629.072262,148.041188,0.000000,10342.289223
69629.072573,74.020594,-148.041188,10342.289223
69629.072884,0.000000,74.020594,10418.898773
69629.073195,-148.041188,0.000000,10801.946522
69629.073506,0.000000,0.000000,10495.508323
69629.073817,148.041188,0.000000,10112.460574
69629.074128,0.000000,-148.041188,9806.022374
69629.074439,0.000000,-148.041188,10189.070123
69629.074750,0.000000,0.000000,10572.117872
69629.075061,148.041188,0.000000,10265.679673
69629.075373,74.020594,0.000000,10035.851024
69629.075684,0.000000,0.000000,10035.851024
69629.075995,74.020594,0.000000,10342.289223
69629.076306,0.000000,-296.082377,10342.289223
69629.076617,0.000000,0.000000,10265.679673
69629.076928,0.000000,0.000000,10035.851024
69629.077239,0.000000,74.020594,10265.679673
69629.077550,0.000000,-222.061783,10342.289223
69629.077861,0.000000,-148.041188,10418.898773
69629.078172,0.000000,0.000000,10648.727422
69629.078483,296.082377,-296.082377,9499.584175
69629.078794,74.020594,0.000000,10342.289223
69629.079105,0.000000,0.000000,9576.193725
69629.079417,0.000000,0.000000,10112.460574
69629.079728,0.000000,-222.061783,10342.289223
69629.080039,0.000000,148.041188,10189.070123
69629.080350,0.000000,148.041188,10342.289223
69629.080661,-592.164754,0.000000,10495.508323
69629.080972,0.000000,0.000000,10035.851024
69629.081283,0.000000,-222.061783,10648.727422
69629.081594,148.041188,0.000000,10342.289223
69629.081905,0.000000,370.102971,10342.289223
69629.082216,222.061783,-148.041188,10342.289223
69629.082527,0.000000,-222.061783,10189.070123
69629.082838,0.000000,0.000000,10112.460574
69629.083149,0.000000,222.061783,10418.898773
69629.083461,0.000000,-148.041188,10495.508323
69629.083772,-296.082377,444.123565,9806.022374
69629.084083,222.061783,148.041188,10342.289223
69629.084394,74.020594,74.020594,9882.631924
69629.084705,74.020594,-222.061783,10342.289223
69629.085016,0.000000,0.000000,10265.679673
69629.085327,0.000000,0.000000,10342.289223
69629.085638,0.000000,0.000000,10418.898773
69629.085949,74.020594,-148.041188,10189.070123
69629.086260,148.041188,-518.144159,10112.460574
69629.086571,0.000000,0.000000,10035.851024
69629.086882,0.000000,74.020594,10955.165621
69629.087193,0.000000,-370.102971,10801.946522
69629.087505,0.000000,-74.020594,10342.289223
69629.087816,0.000000,0.000000,10112.460574
69629.088127,0.000000,0.000000,10342.289223
69629.088438,74.020594,0.000000,10418.898773
69629.088749,74.020594,74.020594,10418.898773
69629.089060,370.102971,-148.041188,9806.022374
69629.089371,0.000000,-222.061783,10342.289223
69629.089682,0.000000,-592.164754,10265.679673
69629.089993,148.041188,-74.020594,10418.898773
69629.090304,0.000000,0.000000,10342.289223
69629.090615,148.041188,74.020594,10495.508323
69629.090926,0.000000,0.000000,10342.289223
69629.091237,0.000000,0.000000,10342.289223
69629.091549,0.000000,74.020594,10035.851024
69629.091860,0.000000,370.102971,10342.289223
69629.092171,0.000000,0.000000,10265.679673
69629.092482,148.041188,0.000000,11108.384721
69629.092793,444.123565,74.020594,10342.289223
69629.093104,74.020594,222.061783,10112.460574
69629.093415,148.041188,0.000000,10265.679673
69629.093726,0.000000,-222.061783,10342.289223
69629.094037,0.000000,0.000000,10495.508323
69629.094348,0.000000,-148.041188,10342.289223
69629.094659,74.020594,0.000000,10495.508323
69629.094970,74.020594,-148.041188,10265.679673
69629.095281,0.000000,0.000000,10112.460574
69629.095593,0.000000,0.000000,9959.241474
69629.095904,0.000000,0.000000,10189.070123
69629.096215,222.061783,148.041188,10725.336972
69629.096526,222.061783,0.000000,10955.165621
69629.096837,666.185348,-518.144159,10648.727422
69629.097148,-148.041188,0.000000,10189.070123
69629.097459,-148.041188,0.000000,10418.898773
69629.097770,0.000000,74.020594,10418.898773
69629.098081,0.000000,0.000000,9959.241474
69629.098392,0.000000,0.000000,10112.460574
69629.098703,74.020594,0.000000,10189.070123
69629.099014,74.020594,0.000000,9729.412825
69629.099325,222.061783,0.000000,10648.727422
69629.099637,-148.041188,0.000000,10342.289223
69629.099948,148.041188,-592.164754,10265.679673
69629.100259,222.061783,0.000000,10342.289223
69629.100570,148.041188,0.000000,10265.679673
69629.100881,0.000000,0.000000,10112.460574
69629.101192,0.000000,-148.041188,10342.289223
69629.101503,0.000000,0.000000,10342.289223
69629.101814,222.061783,148.041188,10495.508323
69629.102125,0.000000,74.020594,10418.898773
69629.102436,74.020594,74.020594,10725.336972
69629.102747,222.061783,-296.082377,10878.556072
69629.103058,296.082377,0.000000,10112.460574
69629.103369,296.082377,444.123565,10265.679673
69629.103681,222.061783,0.000000,10342.289223
69629.103992,148.041188,0.000000,10112.460574
69629.104303,0.000000,74.020594,10418.898773
69629.104614,0.000000,148.041188,10495.508323
69629.104925,0.000000,-148.041188,11108.384721
69629.105236,-444.123565,296.082377,9806.022374
69629.105547,0.000000,148.041188,9806.022374
69629.105858,0.000000,0.000000,10265.679673
69629.106169,-148.041188,74.020594,10342.289223
69629.106480,148.041188,0.000000,10265.679673
69629.106791,74.020594,0.000000,10418.898773
69629.107102,74.020594,0.000000,10342.289223
69629.107413,0.000000,0.000000,10265.679673
69629.107725,296.082377,0.000000,9729.412825
69629.108036,74.020594,-370.102971,10418.898773
69629.108347,518.144159,74.020594,9882.631924
69629.108658,0.000000,-444.123565,9882.631924
69629.108969,0.000000,0.000000,10265.679673
69629.109280,74.020594,0.000000,10342.289223
69629.109591,-148.041188,0.000000,10495.508323
69629.109902,74.020594,0.000000,10342.289223
69629.110213,74.020594,0.000000,10265.679673
69629.110524,444.123565,0.000000,10035.851024
69629.110835,74.020594,0.000000,10265.679673
69629.111146,222.061783,0.000000,10112.460574
69629.111457,148.041188,222.061783,10265.679673
69629.111769,-222.061783,148.041188,10035.851024
69629.112080,-148.041188,74.020594,10418.898773
69629.112391,592.164754,0.000000,10725.336972
69629.112702,518.144159,-518.144159,10189.070123
69629.113013,0.000000,0.000000,10572.117872
69629.113324,148.041188,74.020594,9806.022374
69629.113635,0.000000,0.000000,10189.070123
69629.113946,0.000000,0.000000,10342.289223
69629.114257,148.041188,74.020594,10342.289223
69629.114568,148.041188,-148.041188,10189.070123
69629.114879,0.000000,814.226536,9806.022374
69629.115190,-296.082377,296.082377,10035.851024
69629.115501,444.123565,-74.020594,10725.336972
69629.115812,0.000000,0.000000,10418.898773
69629.116124,74.020594,148.041188,10572.117872
69629.116435,0.000000,0.000000,10342.289223
69629.116746,0.000000,0.000000,10189.070123
69629.117057,0.000000,222.061783,10265.679673
69629.117368,0.000000,0.000000,10112.460574
69629.117679,0.000000,148.041188,10342.289223
69629.117990,-74.020594,222.061783,10035.851024
69629.118301,666.185348,-74.020594,10265.679673
69629.118612,0.000000,0.000000,10342.289223
69629.118923,-296.082377,74.020594,10648.727422
69629.119234,0.000000,0.000000,10342.289223
69629.119545,-148.041188,-222.061783,10265.679673
69629.119856,0.000000,0.000000,10418.898773
69629.120168,0.000000,0.000000,10265.679673
69629.120479,-74.020594,222.061783,9882.631924
69629.120790,222.061783,-296.082377,10342.289223
69629.121101,296.082377,0.000000,10418.898773
69629.121412,444.123565,0.000000,9959.241474
69629.121723,222.061783,0.000000,10189.070123
69629.122034,74.020594,0.000000,10418.898773
69629.122345,0.000000,74.020594,10265.679673
69629.122656,0.000000,148.041188,10495.508323
69629.122967,0.000000,0.000000,10418.898773
69629.123278,592.164754,0.000000,10418.898773
69629.123589,-518.144159,370.102971,10725.336972
69629.123900,0.000000,0.000000,10725.336972
69629.124212,370.102971,-518.144159,10112.460574
69629.124523,0.000000,0.000000,10418.898773
69629.124834,148.041188,0.000000,10189.070123
69629.125145,74.020594,0.000000,10189.070123
69629.125456,74.020594,0.000000,10342.289223
69629.125767,0.000000,0.000000,10572.117872
69629.126078,296.082377,0.000000,10342.289223
69629.126389,0.000000,0.000000,10265.679673
69629.126700,0.000000,0.000000,10265.679673
69629.127011,74.020594,0.000000,10342.289223
69629.127322,0.000000,0.000000,10112.460574
69629.127633,0.000000,222.061783,10725.336972
69629.127944,148.041188,-222.061783,10035.851024
69629.128256,148.041188,370.102971,10112.460574
69629.128567,222.061783,0.000000,10112.460574
69629.128878,74.020594,0.000000,10189.070123
69629.129189,0.000000,148.041188,10035.851024
69629.129500,0.000000,0.000000,10342.289223
69629.129811,222.061783,0.000000,10265.679673
69629.130122,74.020594,0.000000,9959.241474
69629.130433,222.061783,-148.041188,10418.898773
69629.130744,0.000000,0.000000,9882.631924
69629.131055,-148.041188,0.000000,10342.289223
69629.131366,148.041188,-148.041188,10035.851024
69629.131677,74.020594,0.000000,10648.727422
69629.131988,74.020594,0.000000,10418.898773
69629.132300,0.000000,0.000000,10265.679673
69629.132611,0.000000,0.000000,10418.898773
69629.132922,0.000000,148.041188,10189.070123
69629.133233,222.061783,-296.082377,10112.460574
69629.133544,74.020594,-592.164754,10265.679673
69629.133855,0.000000,0.000000,11031.775171
69629.134166,74.020594,148.041188,10189.070123
69629.134477,148.041188,0.000000,10342.289223
69629.134788,0.000000,74.020594,10189.070123
69629.135099,74.020594,0.000000,10035.851024
69629.135410,0.000000,0.000000,10265.679673
69629.135721,74.020594,0.000000,10265.679673
69629.136032,666.185348,0.000000,10878.556072
69629.136344,-296.082377,-518.144159,9882.631924
69629.136655,-222.061783,370.102971,10648.727422
69629.136966,0.000000,0.000000,10801.946522
69629.137277,0.000000,0.000000,10265.679673
69629.137588,296.082377,0.000000,10189.070123
69629.137899,296.082377,0.000000,10572.117872
69629.138210,0.000000,0.000000,10189.070123
69629.138521,0.000000,0.000000,10342.289223
69629.138832,-148.041188,74.020594,10112.460574
69629.139143,74.020594,-222.061783,10572.117872
69629.139454,-74.020594,74.020594,10801.946522
69629.139765,0.000000,-296.082377,10112.460574
69629.140076,74.020594,222.061783,10342.289223
69629.140388,296.082377,222.061783,10648.727422
69629.140699,0.000000,0.000000,10342.289223
69629.141010,0.000000,-222.061783,10342.289223
69629.141321,0.000000,0.000000,10342.289223
69629.141632,296.082377,0.000000,11338.213370
69629.141943,444.123565,0.000000,10342.289223
69629.142254,592.164754,0.000000,9729.412825
69629.142565,0.000000,0.000000,10725.336972
69629.142876,0.000000,0.000000,10265.679673
69629.143187,0.000000,0.000000,10495.508323
69629.143498,0.000000,0.000000,10265.679673
69629.143809,74.020594,74.020594,10342.289223
69629.144120,0.000000,-222.061783,10112.460574
69629.144432,-148.041188,-148.041188,10189.070123
69629.144743,222.061783,-148.041188,10418.898773
69629.145054,148.041188,74.020594,10189.070123
69629.145365,74.020594,148.041188,10418.898773
69629.145676,0.000000,0.000000,10112.460574
69629.145987,0.000000,0.000000,10265.679673
69629.146298,0.000000,0.000000,9806.022374
69629.146609,296.082377,0.000000,10342.289223
69629.146920,0.000000,74.020594,10342.289223
69629.147231,0.000000,74.020594,10572.117872
69629.147542,0.000000,0.000000,10495.508323
69629.147853,0.000000,-148.041188,10265.679673
69629.148164,0.000000,0.000000,10265.679673
69629.148476,0.000000,0.000000,10265.679673
69629.148787,0.000000,740.205942,10725.336972
69629.149098,0.000000,222.061783,10342.289223
69629.149409,0.000000,-296.082377,10418.898773
69629.149720,222.061783,0.000000,10878.556072
69629.150031,444.123565,-148.041188,9882.631924
69629.150342,0.000000,0.000000,10189.070123
69629.150653,148.041188,0.000000,10035.851024
69629.150964,148.041188,0.000000,10572.117872
69629.151275,222.061783,-296.082377,10572.117872
69629.151586,0.000000,0.000000,10725.336972
69629.151897,0.000000,-370.102971,10725.336972
69629.152208,0.000000,74.020594,10112.460574
69629.152520,148.041188,74.020594,9422.974625
69629.152831,0.000000,0.000000,10189.070123
69629.153142,0.000000,-296.082377,10265.679673
69629.153453,0.000000,74.020594,10418.898773
69629.153764,222.061783,0.000000,10035.851024
69629.154075,0.000000,-222.061783,10035.851024
69629.154386,148.041188,0.000000,10189.070123
69629.154697,222.061783,222.061783,9806.022374
69629.155008,-74.020594,-370.102971,9806.022374
69629.155319,0.000000,-296.082377,10342.289223
69629.155630,74.020594,74.020594,10342.289223
69629.155941,0.000000,0.000000,10112.460574
69629.156252,0.000000,0.000000,10265.679673
69629.156564,0.000000,222.061783,10265.679673
69629.156875,0.000000,148.041188,10265.679673
69629.157186,0.000000,0.000000,10418.898773
69629.157497,296.082377,-370.102971,10035.851024
69629.157808,-666.185348,296.082377,9729.412825
69629.158119,-222.061783,148.041188,9959.241474
69629.158430,148.041188,222.061783,10112.460574
69629.158741,0.000000,0.000000,10418.898773
69629.159052,0.000000,0.000000,10418.898773
69629.159363,296.082377,-148.041188,10342.289223
69629.159674,74.020594,0.000000,10265.679673
69629.159985,-148.041188,0.000000,10418.898773
69629.160296,0.000000,0.000000,10572.117872
69629.160607,0.000000,0.000000,10112.460574
69629.160918,0.000000,222.061783,10342.289223
69629.161230,0.000000,0.000000,10418.898773
69629.161541,74.020594,222.061783,10572.117872
69629.161852,296.082377,0.000000,10725.336972
69629.162163,148.041188,222.061783,10342.289223
69629.162474,0.000000,148.041188,10265.679673
69629.162785,0.000000,0.000000,10112.460574
69629.163096,0.000000,0.000000,10878.556072
69629.163407,-222.061783,148.041188,10495.508323
69629.163718,0.000000,74.020594,10418.898773
69629.164029,444.123565,-296.082377,10418.898773
69629.164340,222.061783,-222.061783,10265.679673
69629.164651,148.041188,0.000000,10342.289223
69629.164962,370.102971,-74.020594,10342.289223
69629.165273,0.000000,296.082377,10265.679673
69629.165584,0.000000,0.000000,10342.289223
69629.165895,0.000000,148.041188,10265.679673
69629.166206,0.000000,0.000000,10035.851024
69629.166517,0.000000,0.000000,10342.289223
69629.166828,0.000000,0.000000,10342.289223
69629.167139,-148.041188,74.020594,10418.898773
69629.167450,370.102971,222.061783,10342.289223
69629.167761,222.061783,222.061783,9882.631924
69629.168073,74.020594,-296.082377,10265.679673
69629.168384,74.020594,0.000000,10112.460574
69629.168695,370.102971,74.020594,9882.631924
69629.169006,74.020594,0.000000,10189.070123
69629.169317,0.000000,0.000000,10112.460574
69629.169628,0.000000,0.000000,10265.679673
69629.169939,0.000000,74.020594,10112.460574
69629.170250,518.144159,296.082377,10572.117872
69629.170561,74.020594,74.020594,10878.556072
69629.170872,-444.123565,222.061783,10495.508323
69629.171183,0.000000,74.020594,10189.070123
69629.171494,74.020594,148.041188,10112.460574
69629.171805,0.000000,-296.082377,10495.508323
69629.172116,74.020594,-148.041188,10418.898773
69629.172427,222.061783,148.041188,10265.679673
69629.172738,148.041188,0.000000,10189.070123
69629.173049,0.000000,74.020594,10418.898773
69629.173360,74.020594,148.041188,10648.727422
69629.173671,0.000000,-222.061783,9959.241474
69629.173982,74.020594,148.041188,10572.117872
69629.174293,0.000000,-296.082377,10418.898773
69629.174604,0.000000,-222.061783,10572.117872
69629.174916,0.000000,-148.041188,10265.679673
69629.175227,0.000000,74.020594,10418.898773
69629.175538,0.000000,74.020594,10495.508323
69629.175849,222.061783,-222.061783,11031.775171
69629.176160,148.041188,0.000000,10418.898773
69629.176471,222.061783,0.000000,10342.289223
69629.176782,296.082377,0.000000,10035.851024
69629.177093,74.020594,0.000000,10418.898773
69629.177404,148.041188,222.061783,10189.070123
69629.177715,-518.144159,0.000000,10189.070123
69629.178026,74.020594,0.000000,10418.898773
69629.178337,0.000000,222.061783,10189.070123
69629.178648,0.000000,0.000000,10035.851024
69629.178959,74.020594,0.000000,10648.727422
69629.179270,148.041188,0.000000,10342.289223
69629.179581,0.000000,74.020594,10035.851024
69629.179892,296.082377,0.000000,10189.070123
69629.180203,444.123565,-370.102971,10112.460574
69629.180514,-370.102971,-296.082377,10189.070123
69629.180825,148.041188,-222.061783,10418.898773
69629.181136,0.000000,0.000000,10189.070123
69629.181447,74.020594,0.000000,10265.679673
69629.181759,0.000000,0.000000,10265.679673
69629.182070,0.000000,0.000000,10418.898773
69629.182381,0.000000,0.000000,10418.898773
69629.182692,148.041188,148.041188,10265.679673
69629.183003,222.061783,74.020594,10418.898773
69629.183314,-148.041188,222.061783,10878.556072
69629.183625,74.020594,-296.082377,10265.679673
69629.183936,-296.082377,148.041188,10495.508323
69629.184247,0.000000,0.000000,10265.679673
69629.184558,222.061783,0.000000,10035.851024
69629.184869,0.000000,0.000000,10265.679673
69629.185180,0.000000,-148.041188,10189.070123
69629.185491,0.000000,0.000000,10418.898773
69629.185802,74.020594,0.000000,10342.289223
69629.186113,148.041188,222.061783,9959.241474
69629.186424,0.000000,148.041188,10035.851024
69629.186735,-296.082377,-518.144159,10189.070123
69629.187046,0.000000,0.000000,10495.508323
69629.187357,74.020594,0.000000,10112.460574
69629.187668,0.000000,0.000000,10418.898773
69629.187979,-296.082377,0.000000,10495.508323
69629.188291,-222.061783,0.000000,10342.289223
69629.188602,518.144159,222.061783,9959.241474
69629.188913,222.061783,-444.123565,9959.241474
69629.189224,148.041188,222.061783,10418.898773
69629.189535,74.020594,518.144159,10495.508323
69629.189846,148.041188,0.000000,10342.289223
69629.190157,222.061783,444.123565,10265.679673
69629.190468,148.041188,-296.082377,10265.679673
69629.190779,74.020594,-148.041188,10112.460574
69629.191090,74.020594,0.000000,10189.070123
69629.191401,0.000000,0.000000,10265.679673
69629.191712,74.020594,0.000000,10801.946522
69629.192023,222.061783,0.000000,10112.460574
69629.192334,-222.061783,0.000000,10725.336972
69629.192645,148.041188,0.000000,10342.289223
69629.192956,74.020594,222.061783,10112.460574
69629.193267,0.000000,0.000000,10342.289223
69629.193578,0.000000,0.000000,10265.679673
69629.193889,370.102971,0.000000,10342.289223
69629.194200,74.020594,0.000000,10265.679673
69629.194511,0.000000,0.000000,10418.898773
69629.194822,148.041188,74.020594,10265.679673
69629.195134,0.000000,0.000000,10342.289223
69629.195445,-222.061783,0.000000,10342.289223
69629.195756,592.164754,-740.205942,10648.727422
69629.196067,592.164754,222.061783,10725.336972
69629.196378,-148.041188,0.000000,10418.898773
69629.196689,370.102971,0.000000,10189.070123
69629.197000,296.082377,0.000000,9959.241474
69629.197311,74.020594,0.000000,10189.070123
69629.197622,148.041188,0.000000,10189.070123
69629.197933,0.000000,222.061783,10035.851024
69629.198244,0.000000,0.000000,10189.070123
69629.198555,148.041188,0.000000,9652.803275
69629.198866,-592.164754,0.000000,10801.946522
69629.199177,0.000000,-148.041188,10955.165621
69629.199488,592.164754,-962.267725,11108.384721
69629.199799,0.000000,-222.061783,10265.679673
69629.200110,592.164754,74.020594,10035.851024
69629.200421,0.000000,0.000000,10265.679673
69629.200732,74.020594,0.000000,10342.289223
69629.201043,74.020594,0.000000,10189.070123
69629.201354,148.041188,-148.041188,9959.241474
69629.201665,592.164754,148.041188,10418.898773
69629.201977,0.000000,0.000000,10725.336972
69629.202288,0.000000,-666.185348,10955.165621
69629.202599,-296.082377,0.000000,10418.898773
69629.202910,148.041188,0.000000,10189.070123
69629.203221,0.000000,0.000000,10342.289223
69629.203532,-222.061783,0.000000,10342.289223
69629.203843,0.000000,0.000000,10342.289223
69629.204154,0.000000,74.020594,10648.727422
69629.204465,74.020594,-74.020594,9806.022374
69629.204776,0.000000,222.061783,10725.336972
69629.205087,518.144159,0.000000,10265.679673
69629.205398,0.000000,222.061783,10495.508323
69629.205709,-296.082377,148.041188,10572.117872
69629.206020,0.000000,-148.041188,10265.679673
69629.206331,148.041188,-148.041188,10342.289223
69629.206642,0.000000,148.041188,9959.241474
69629.206953,0.000000,-148.041188,10342.289223
69629.207264,-74.020594,370.102971,10112.460574
69629.207575,0.000000,0.000000,10112.460574
69629.207886,888.247130,296.082377,9882.631924
69629.208197,0.000000,370.102971,10189.070123
69629.208508,0.000000,-222.061783,11031.775171
69629.208820,0.000000,-148.041188,10342.289223
69629.209131,148.041188,0.000000,10265.679673
69629.209442,148.041188,-148.041188,10112.460574
69629.209753,74.020594,0.000000,10189.070123
69629.210064,222.061783,0.000000,9959.241474
69629.210375,0.000000,-296.082377,10418.898773
69629.210686,0.000000,0.000000,10189.070123
69629.210997,0.000000,296.082377,10342.289223
69629.211308,74.020594,444.123565,10189.070123
69629.211619,0.000000,148.041188,11108.384721
69629.211930,0.000000,-296.082377,9806.022374
69629.212241,296.082377,-222.061783,10265.679673
69629.212552,0.000000,0.000000,10112.460574
69629.212863,444.123565,444.123565,9959.241474
69629.213174,0.000000,0.000000,10418.898773
69629.213485,74.020594,0.000000,10342.289223
69629.213796,0.000000,-296.082377,10189.070123
69629.214107,0.000000,0.000000,10418.898773
69629.214418,-370.102971,222.061783,10112.460574
69629.214729,0.000000,-296.082377,10648.727422
69629.215040,370.102971,-666.185348,10342.289223
69629.215352,0.000000,0.000000,10112.460574
69629.215663,296.082377,222.061783,11031.775171
69629.215974,74.020594,0.000000,10418.898773
69629.216285,0.000000,-222.061783,10572.117872
69629.216596,0.000000,74.020594,10495.508323
69629.216907,222.061783,0.000000,10418.898773
69629.217218,0.000000,74.020594,10418.898773
69629.217529,0.000000,0.000000,10265.679673
69629.217840,-370.102971,222.061783,10035.851024
69629.218151,-592.164754,0.000000,10265.679673
69629.218462,222.061783,-296.082377,10265.679673
69629.218773,74.020594,74.020594,10265.679673
69629.219084,0.000000,0.000000,10418.898773
69629.219395,74.020594,0.000000,10418.898773
69629.219706,74.020594,74.020594,10112.460574
69629.220017,222.061783,-222.061783,10418.898773
69629.220328,296.082377,74.020594,9652.803275
69629.220639,222.061783,222.061783,10572.117872
69629.220950,370.102971,0.000000,10112.460574
69629.221261,74.020594,-148.041188,10495.508323
69629.221572,0.000000,0.000000,10112.460574
69629.221883,0.000000,0.000000,10189.070123
69629.222195,0.000000,0.000000,10112.460574
69629.222506,0.000000,0.000000,10342.289223
69629.222817,0.000000,296.082377,10495.508323
69629.223128,740.205942,-296.082377,9882.631924
69629.223439,0.000000,-148.041188,9806.022374
69629.223750,0.000000,148.041188,9882.631924
69629.224061,0.000000,0.000000,10418.898773
69629.224372,-444.123565,0.000000,10572.117872
69629.224683,148.041188,0.000000,10342.289223
69629.224994,0.000000,0.000000,10189.070123
69629.225305,0.000000,-148.041188,10495.508323
69629.225616,222.061783,518.144159,10418.898773
69629.225927,296.082377,296.082377,9806.022374
69629.226238,74.020594,-296.082377,10265.679673
69629.226549,0.000000,-444.123565,10035.851024
69629.226860,148.041188,0.000000,10189.070123
69629.227171,74.020594,74.020594,10342.289223
69629.227482,74.020594,0.000000,9959.241474
69629.227793,0.000000,74.020594,10418.898773
69629.228104,74.020594,0.000000,10418.898773
69629.228415,-148.041188,666.185348,10342.289223
69629.228726,0.000000,0.000000,10342.289223
69629.229038,0.000000,0.000000,10418.898773
69629.229349,0.000000,0.000000,10189.070123
69629.229660,0.000000,0.000000,10342.289223
69629.229971,0.000000,-592.164754,10189.070123
69629.230282,-444.123565,-370.102971,10725.336972
69629.230593,444.123565,222.061783,10189.070123
69629.230904,74.020594,74.020594,10189.070123
69629.231215,74.020594,0.000000,10801.946522
69629.231526,0.000000,0.000000,10342.289223
69629.231837,0.000000,0.000000,10495.508323
69629.232148,0.000000,0.000000,10418.898773
69629.232459,0.000000,74.020594,10418.898773
69629.232770,444.123565,296.082377,10878.556072
69629.233081,0.000000,-222.061783,10955.165621
69629.233392,148.041188,666.185348,10112.460574
69629.233703,74.020594,-222.061783,10342.289223
69629.234014,74.020594,0.000000,10189.070123
69629.234325,74.020594,148.041188,10189.070123
69629.234636,148.041188,0.000000,10265.679673
69629.234947,-222.061783,0.000000,10418.898773
69629.235258,0.000000,0.000000,10495.508323
69629.235569,0.000000,296.082377,10495.508323
69629.235881,-740.205942,0.000000,10418.898773
69629.236192,370.102971,0.000000,10189.070123
69629.236503,0.000000,592.164754,9729.412825
69629.236814,-148.041188,74.020594,10418.898773
69629.237125,0.000000,74.020594,10342.289223
69629.237436,296.082377,148.041188,10112.460574
69629.237747,222.061783,0.000000,10035.851024
69629.238058,0.000000,0.000000,10418.898773
69629.238369,74.020594,0.000000,10265.679673
69629.238680,222.061783,0.000000,10112.460574
69629.238991,0.000000,0.000000,10112.460574
69629.239302,0.000000,-518.144159,10342.289223
69629.239613,-222.061783,0.000000,10572.117872
69629.239924,0.000000,-222.061783,10878.556072
69629.240235,74.020594,74.020594,10112.460574
69629.240546,0.000000,74.020594,10189.070123
69629.240857,-222.061783,0.000000,10572.117872
69629.241168,0.000000,74.020594,10265.679673
69629.241479,222.061783,0.000000,10112.460574
69629.241790,222.061783,-666.185348,10342.289223
69629.242101,74.020594,0.000000,10495.508323
69629.242413,222.061783,0.000000,10418.898773
69629.242724,-444.123565,0.000000,10878.556072
69629.243035,0.000000,0.000000,10418.898773
69629.243346,74.020594,0.000000,10418.898773
69629.243657,0.000000,-148.041188,10342.289223
69629.243968,0.000000,0.000000,10418.898773
69629.244279,148.041188,74.020594,10189.070123
69629.244590,0.000000,0.000000,10342.289223
69629.244901,74.020594,0.000000,10189.070123
69629.245212,148.041188,222.061783,10342.289223
69629.245523,222.061783,0.000000,9729.412825
69629.245834,518.144159,-148.041188,10648.727422
69629.246145,222.061783,0.000000,10265.679673
69629.246456,74.020594,-296.082377,10189.070123
69629.246767,-222.061783,0.000000,10342.289223
69629.247078,148.041188,0.000000,10495.508323
69629.247389,-148.041188,0.000000,10648.727422
69629.247700,-148.041188,-148.041188,10265.679673
69629.248011,0.000000,0.000000,10189.070123
69629.248322,296.082377,444.123565,10265.679673
69629.248633,0.000000,74.020594,9806.022374
69629.248944,0.000000,0.000000,10035.851024
69629.249256,-74.020594,74.020594,10725.336972
69629.249567,148.041188,74.020594,10265.679673
69629.249878,-148.041188,74.020594,10495.508323
69629.250189,-148.041188,0.000000,10418.898773
69629.250500,-148.041188,0.000000,10495.508323
69629.250811,0.000000,0.000000,10418.898773
69629.251122,0.000000,0.000000,10495.508323
69629.251433,-74.020594,0.000000,10572.117872
69629.251744,-592.164754,0.000000,10265.679673
69629.252055,222.061783,0.000000,10955.165621
69629.252366,222.061783,0.000000,9806.022374
69629.252677,444.123565,-296.082377,11031.775171
69629.252988,148.041188,-222.061783,10265.679673
69629.253299,148.041188,0.000000,10189.070123
69629.253610,74.020594,0.000000,10189.070123
69629.253921,148.041188,0.000000,10342.289223
69629.254232,148.041188,296.082377,10418.898773
69629.254543,222.061783,-296.082377,10572.117872
69629.254854,0.000000,-74.020594,10725.336972
69629.255165,0.000000,-148.041188,10495.508323
69629.255476,74.020594,0.000000,10189.070123
69629.255787,0.000000,0.000000,10189.070123
69629.256099,222.061783,0.000000,10418.898773
69629.256410,74.020594,0.000000,10265.679673
69629.256721,74.020594,0.000000,10265.679673
69629.257032,74.020594,74.020594,10572.117872
69629.257343,0.000000,-444.123565,10342.289223
69629.257654,444.123565,-296.082377,10878.556072
69629.257965,0.000000,-148.041188,10418.898773
69629.258276,-296.082377,370.102971,10801.946522
69629.258587,0.000000,0.000000,10495.508323
69629.258898,0.000000,0.000000,10342.289223
69629.259209,0.000000,0.000000,10342.289223
69629.259520,0.000000,0.000000,10265.679673
69629.259831,518.144159,74.020594,10418.898773
69629.260142,74.020594,0.000000,10418.898773
69629.260453,148.041188,74.020594,10342.289223
69629.260764,148.041188,-296.082377,10265.679673
69629.261075,0.000000,-296.082377,10648.727422
69629.261386,-148.041188,0.000000,10725.336972
69629.261697,518.144159,-370.102971,10265.679673
69629.262008,0.000000,0.000000,9422.974625
69629.262319,0.000000,0.000000,10189.070123
69629.262630,-222.061783,0.000000,10725.336972
69629.262941,0.000000,0.000000,10418.898773
69629.263252,74.020594,-148.041188,10265.679673
69629.263563,370.102971,-444.123565,10112.460574
69629.263874,0.000000,0.000000,10265.679673
69629.264186,-148.041188,296.082377,10112.460574
69629.264497,-148.041188,0.000000,10265.679673
69629.264808,0.000000,0.000000,10801.946522
69629.265119,0.000000,222.061783,10418.898773
69629.265430,-148.041188,-148.041188,11031.775171
69629.265741,0.000000,74.020594,10495.508323
69629.266052,0.000000,74.020594,10572.117872
69629.266363,148.041188,0.000000,10265.679673
69629.266674,148.041188,-222.061783,10035.851024
69629.266985,0.000000,0.000000,9882.631924
69629.267296,222.061783,-518.144159,10418.898773
69629.267607,296.082377,0.000000,10725.336972
69629.267918,74.020594,-296.082377,10342.289223
69629.268229,74.020594,-296.082377,10418.898773
69629.268540,74.020594,0.000000,10342.289223
69629.268851,0.000000,74.020594,10495.508323
69629.269162,0.000000,0.000000,10265.679673
69629.269473,0.000000,0.000000,10265.679673
69629.269784,0.000000,-148.041188,10112.460574
69629.270095,-74.020594,-74.020594,9959.241474
69629.270406,-592.164754,296.082377,9882.631924
69629.270717,148.041188,0.000000,10035.851024
69629.271028,0.000000,0.000000,10265.679673
69629.271339,222.061783,-296.082377,10265.679673
69629.271650,0.000000,0.000000,10418.898773
69629.271961,0.000000,0.000000,10342.289223
69629.272272,148.041188,0.000000,10189.070123
69629.272583,148.041188,0.000000,9959.241474
69629.272894,222.061783,-74.020594,10342.289223
69629.273205,0.000000,-222.061783,10342.289223
69629.273516,222.061783,0.000000,9806.022374
69629.273827,296.082377,0.000000,9882.631924
69629.274138,0.000000,0.000000,10418.898773
69629.274449,-148.041188,0.000000,10418.898773
69629.274760,0.000000,0.000000,10265.679673
69629.275071,0.000000,0.000000,10189.070123
69629.275382,74.020594,0.000000,10342.289223
69629.275693,370.102971,666.185348,10342.289223
69629.276004,518.144159,-518.144159,10572.117872
69629.276315,222.061783,-518.144159,10035.851024
69629.276626,296.082377,0.000000,10189.070123
69629.276937,148.041188,0.000000,10035.851024
69629.277248,0.000000,0.000000,10265.679673
69629.277559,0.000000,148.041188,10418.898773
69629.277870,0.000000,-222.061783,10342.289223
69629.278181,0.000000,-148.041188,10342.289223
69629.278492,0.000000,518.144159,10189.070123
69629.278803,0.000000,518.144159,9346.365076
69629.279114,296.082377,-296.082377,10955.165621
69629.279425,0.000000,222.061783,10342.289223
69629.279736,148.041188,0.000000,10418.898773
69629.280047,222.061783,0.000000,10342.289223
69629.280358,148.041188,0.000000,10342.289223
69629.280669,148.041188,0.000000,10112.460574
69629.280980,0.000000,0.000000,10189.070123
69629.281291,74.020594,222.061783,9959.241474
69629.281602,0.000000,0.000000,10342.289223
69629.281913,0.000000,0.000000,10495.508323
69629.282224,222.061783,0.000000,10265.679673
69629.282535,222.061783,74.020594,10342.289223
69629.282846,-592.164754,222.061783,9806.022374
69629.283157,-666.185348,592.164754,10035.851024
69629.283468,148.041188,-296.082377,9729.412825
69629.283779,148.041188,74.020594,10035.851024
69629.284090,148.041188,74.020594,10878.556072
69629.284401,0.000000,0.000000,10265.679673
69629.284712,0.000000,0.000000,10342.289223
69629.285023,0.000000,0.000000,10112.460574
69629.285334,0.000000,296.082377,10342.289223
69629.285645,296.082377,666.185348,10418.898773
69629.285956,0.000000,222.061783,9806.022374
69629.286267,74.020594,74.020594,10189.070123
69629.286578,-222.061783,0.000000,10342.289223
69629.286889,74.020594,0.000000,10189.070123
69629.287200,0.000000,74.020594,10418.898773
69629.287511,74.020594,-148.041188,10265.679673
69629.287822,0.000000,0.000000,10265.679673
69629.288133,0.000000,0.000000,10265.679673
69629.288444,148.041188,0.000000,10035.851024
69629.288755,-296.082377,148.041188,10648.727422
69629.289066,-148.041188,0.000000,10265.679673
69629.289377,148.041188,-222.061783,10725.336972
69629.289688,74.020594,0.000000,10189.070123
69629.289999,74.020594,0.000000,10265.679673
69629.290310,0.000000,74.020594,10265.679673
69629.290621,0.000000,-148.041188,10189.070123
69629.290932,0.000000,0.000000,10265.679673
69629.291243,74.020594,0.000000,10418.898773
69629.291554,-148.041188,444.123565,10418.898773
69629.291865,-296.082377,592.164754,10342.289223
69629.292176,-74.020594,444.123565,10495.508323
69629.292487,0.000000,0.000000,10265.679673
69629.292798,222.061783,-370.102971,10801.946522
69629.293109,0.000000,0.000000,10418.898773
69629.293420,0.000000,0.000000,10189.070123
69629.293731,0.000000,-148.041188,10265.679673
69629.294042,0.000000,0.000000,10342.289223
69629.294353,-370.102971,0.000000,9806.022374
69629.294664,0.000000,0.000000,10342.289223
69629.294976,0.000000,0.000000,9959.241474
69629.295287,-74.020594,0.000000,10725.336972
69629.295598,-370.102971,74.020594,10725.336972
69629.295909,0.000000,0.000000,10495.508323
69629.296220,74.020594,-222.061783,10189.070123
69629.296531,0.000000,0.000000,10189.070123
69629.296842,0.000000,0.000000,10418.898773
69629.297153,444.123565,74.020594,10112.460574
69629.297464,74.020594,0.000000,10189.070123
69629.297775,74.020594,0.000000,10112.460574
69629.298086,0.000000,-296.082377,10265.679673
69629.298397,0.000000,-296.082377,10648.727422
69629.298708,0.000000,-370.102971,10955.165621
69629.299019,74.020594,0.000000,10112.460574
69629.299330,370.102971,-222.061783,10342.289223
69629.299641,0.000000,222.061783,10189.070123
69629.299952,0.000000,296.082377,10342.289223
69629.300263,148.041188,0.000000,10265.679673
69629.300574,148.041188,0.000000,10189.070123
69629.300885,296.082377,0.000000,10112.460574
69629.301196,148.041188,296.082377,10572.117872
69629.301507,518.144159,-148.041188,10418.898773
69629.301818,740.205942,-148.041188,10418.898773
69629.302129,296.082377,74.020594,10955.165621
69629.302440,0.000000,0.000000,10418.898773
69629.302751,-148.041188,222.061783,10342.289223
69629.303062,-222.061783,0.000000,10572.117872
69629.303373,0.000000,0.000000,10342.289223
69629.303684,74.020594,0.000000,10495.508323
69629.303995,148.041188,74.020594,10572.117872
69629.304306,-370.102971,-296.082377,10418.898773
69629.304617,0.000000,0.000000,11108.384721
69629.304928,222.061783,-666.185348,10495.508323
69629.305239,148.041188,0.000000,10189.070123
69629.305550,74.020594,-296.082377,10878.556072
69629.305861,-296.082377,-222.061783,10572.117872
69629.306172,0.000000,-296.082377,10265.679673
69629.306483,0.000000,-148.041188,10035.851024
69629.306794,0.000000,148.041188,9882.631924
69629.307105,0.000000,222.061783,10648.727422
69629.307416,222.061783,0.000000,10112.460574
69629.307727,148.041188,74.020594,10342.289223
69629.308038,148.041188,0.000000,10112.460574
69629.308349,148.041188,0.000000,10035.851024
69629.308660,74.020594,0.000000,10342.289223
69629.308971,0.000000,74.020594,10418.898773
69629.309282,-296.082377,0.000000,10265.679673
69629.309593,0.000000,-296.082377,10572.117872
69629.309904,0.000000,0.000000,10265.679673
69629.310215,-222.061783,370.102971,9576.193725
69629.310526,222.061783,0.000000,11108.384721
69629.310837,296.082377,222.061783,10342.289223
69629.311148,222.061783,0.000000,10572.117872
69629.311459,444.123565,0.000000,10112.460574
69629.311770,74.020594,-148.041188,10189.070123
69629.312081,-148.041188,74.020594,10418.898773
69629.312392,0.000000,0.000000,10342.289223
69629.312703,0.000000,296.082377,10495.508323
69629.313014,0.000000,0.000000,10265.679673
69629.313325,-148.041188,0.000000,10189.070123
69629.313636,0.000000,74.020594,10648.727422
69629.313947,0.000000,0.000000,10495.508323
69629.314258,296.082377,0.000000,10955.165621
69629.314569,0.000000,444.123565,10418.898773
69629.314880,-296.082377,0.000000,10265.679673
69629.315191,74.020594,0.000000,10342.289223
69629.315502,0.000000,0.000000,10725.336972
69629.315813,0.000000,222.061783,10035.851024
69629.316124,74.020594,0.000000,10342.289223
69629.316435,0.000000,0.000000,10495.508323
69629.316746,0.000000,0.000000,10495.508323
69629.317057,-222.061783,0.000000,9882.631924
69629.317368,-74.020594,74.020594,10495.508323
69629.317679,222.061783,-74.020594,10189.070123
69629.317990,0.000000,-148.041188,10189.070123
69629.318301,74.020594,-814.226536,10495.508323
69629.318612,222.061783,0.000000,10342.289223
69629.318923,222.061783,148.041188,10189.070123
69629.319234,0.000000,0.000000,10189.070123
69629.319545,74.020594,-222.061783,10265.679673
69629.319856,222.061783,-222.061783,9882.631924
69629.320167,0.000000,296.082377,9806.022374
69629.320478,-74.020594,74.020594,10035.851024
69629.320789,0.000000,-148.041188,10265.679673
69629.321100,-296.082377,0.000000,10265.679673
69629.321411,0.000000,148.041188,10418.898773
69629.321722,74.020594,0.000000,10418.898773
69629.322033,296.082377,0.000000,10189.070123
69629.322344,0.000000,148.041188,10265.679673
69629.322655,-592.164754,444.123565,9269.755526
69629.322966,222.061783,-74.020594,10112.460574
69629.323277,148.041188,-296.082377,10342.289223
69629.323588,74.020594,0.000000,9959.241474
69629.323899,0.000000,74.020594,10418.898773
69629.324210,0.000000,0.000000,10342.289223
69629.324521,0.000000,0.000000,10418.898773
69629.324832,0.000000,-148.041188,10189.070123
69629.325143,74.020594,0.000000,10342.289223
69629.325454,444.123565,0.000000,10648.727422
69629.325766,0.000000,148.041188,10342.289223
69629.326077,74.020594,0.000000,9806.022374
69629.326388,-296.082377,370.102971,10418.898773
69629.326699,0.000000,0.000000,10189.070123
69629.327010,74.020594,-222.061783,10495.508323
69629.327321,74.020594,-148.041188,10189.070123
69629.327632,0.000000,74.020594,10495.508323
69629.327943,0.000000,-222.061783,10648.727422
69629.328254,222.061783,74.020594,10725.336972
69629.328565,0.000000,148.041188,10725.336972
69629.328876,222.061783,-74.020594,9652.803275
69629.329187,148.041188,-222.061783,9729.412825
69629.329498,0.000000,0.000000,10112.460574
69629.329809,0.000000,0.000000,10572.117872
69629.330120,74.020594,74.020594,10112.460574
69629.330431,74.020594,0.000000,10648.727422
69629.330742,0.000000,0.000000,10495.508323
69629.331053,74.020594,148.041188,11108.384721
69629.331364,0.000000,0.000000,10418.898773
69629.331675,74.020594,0.000000,10418.898773
69629.331986,148.041188,148.041188,10418.898773
69629.332297,74.020594,0.000000,10265.679673
69629.332608,222.061783,74.020594,10955.165621
69629.332919,296.082377,0.000000,10342.289223
69629.333230,74.020594,-74.020594,10342.289223
69629.333541,0.000000,0.000000,10418.898773
69629.333852,0.000000,0.000000,10418.898773
69629.334163,74.020594,0.000000,10342.289223
69629.334474,0.000000,0.000000,10112.460574
69629.334785,0.000000,0.000000,10265.679673
69629.335096,0.000000,-148.041188,10342.289223
69629.335407,0.000000,222.061783,10648.727422
69629.335718,444.123565,74.020594,10112.460574
69629.336029,0.000000,0.000000,10035.851024
69629.336340,-148.041188,0.000000,10112.460574
69629.336651,0.000000,0.000000,10189.070123
69629.336962,0.000000,148.041188,10112.460574
69629.337273,0.000000,0.000000,10418.898773
69629.337584,-148.041188,0.000000,10112.460574
69629.337895,0.000000,74.020594,10572.117872
69629.338206,0.000000,148.041188,10878.556072
69629.338517,0.000000,0.000000,10801.946522
69629.338828,296.082377,296.082377,10112.460574
69629.339139,222.061783,444.123565,10572.117872
69629.339450,0.000000,0.000000,10495.508323
69629.339761,0.000000,-222.061783,10495.508323
69629.340072,0.000000,0.000000,10265.679673
69629.340383,296.082377,-148.041188,10265.679673
69629.340694,0.000000,0.000000,10342.289223
69629.341005,0.000000,0.000000,10342.289223
69629.341316,74.020594,0.000000,10878.556072
69629.341627,0.000000,222.061783,9882.631924
69629.341938,-222.061783,-296.082377,10189.070123
69629.342249,0.000000,0.000000,10495.508323
69629.342560,296.082377,-222.061783,10189.070123
69629.342871,74.020594,-148.041188,10265.679673
69629.343182,148.041188,0.000000,10342.289223
69629.343493,-148.041188,0.000000,10342.289223
69629.343804,0.000000,0.000000,10648.727422
69629.344115,148.041188,148.041188,10265.679673
69629.344426,0.000000,148.041188,9729.412825
69629.344737,0.000000,-296.082377,10418.898773
69629.345048,0.000000,0.000000,10342.289223
69629.345359,0.000000,-222.061783,10878.556072
69629.345670,0.000000,0.000000,10265.679673
69629.345981,0.000000,0.000000,10112.460574
69629.346292,0.000000,0.000000,10418.898773
69629.346603,74.020594,0.000000,10265.679673
69629.346914,74.020594,148.041188,10035.851024
69629.347225,148.041188,0.000000,10189.070123
69629.347536,222.061783,0.000000,10265.679673
69629.347847,0.000000,0.000000,10035.851024
69629.348158,0.000000,296.082377,9269.755526
69629.348469,0.000000,0.000000,10955.165621
69629.348780,148.041188,0.000000,10342.289223
69629.349091,0.000000,-222.061783,10725.336972
69629.349402,0.000000,0.000000,10342.289223
69629.349713,0.000000,-148.041188,10418.898773
69629.350024,0.000000,-148.041188,10572.117872
69629.350335,74.020594,296.082377,10189.070123
69629.350646,148.041188,0.000000,10189.070123
69629.350957,0.000000,148.041188,11031.775171
69629.351268,0.000000,0.000000,10955.165621
69629.351579,-222.061783,74.020594,10955.165621
69629.351890,0.000000,-592.164754,10189.070123
69629.352201,74.020594,0.000000,10189.070123
69629.352512,0.000000,-444.123565,10801.946522
69629.352823,0.000000,0.000000,10418.898773
69629.353134,222.061783,0.000000,10112.460574
69629.353445,296.082377,-148.041188,10112.460574
69629.353756,148.041188,0.000000,10189.070123
69629.354067,444.123565,0.000000,9882.631924
69629.354378,296.082377,296.082377,10265.679673
69629.354689,-74.020594,74.020594,10035.851024
69629.355000,0.000000,0.000000,10112.460574
69629.355311,0.000000,148.041188,10112.460574
69629.355622,-222.061783,0.000000,10725.336972
69629.355933,-296.082377,0.000000,10648.727422
69629.356244,0.000000,0.000000,10418.898773
69629.356556,148.041188,0.000000,10418.898773
69629.356867,-148.041188,-222.061783,10189.070123
69629.357178,0.000000,0.000000,9806.022374
69629.357489,0.000000,-444.123565,10418.898773
69629.357800,222.061783,0.000000,10035.851024
69629.358111,-222.061783,74.020594,9806.022374
69629.358422,74.020594,0.000000,10189.070123
69629.358733,0.000000,74.020594,10265.679673
69629.359044,0.000000,0.000000,10342.289223
69629.359355,0.000000,0.000000,10572.117872
69629.359666,-370.102971,222.061783,10648.727422
69629.359977,-666.185348,0.000000,10495.508323
69629.360288,148.041188,0.000000,10035.851024
69629.360599,-370.102971,0.000000,10189.070123
69629.360910,444.123565,0.000000,10495.508323
69629.361221,296.082377,-222.061783,10265.679673
69629.361532,0.000000,0.000000,10342.289223
69629.361843,74.020594,-148.041188,10265.679673
69629.362154,0.000000,0.000000,10265.679673
69629.362465,0.000000,0.000000,10572.117872
69629.362776,0.000000,0.000000,10342.289223
69629.363087,0.000000,74.020594,10265.679673
69629.363398,0.000000,0.000000,10418.898773
69629.363709,0.000000,0.000000,10648.727422
69629.364020,148.041188,74.020594,10495.508323
69629.364331,-370.102971,0.000000,9806.022374
69629.364642,148.041188,0.000000,10035.851024
69629.364953,148.041188,0.000000,10418.898773
69629.365264,444.123565,-592.164754,10495.508323
69629.365575,74.020594,0.000000,10342.289223
69629.365886,74.020594,0.000000,10265.679673
69629.366197,74.020594,0.000000,10189.070123
69629.366508,0.000000,0.000000,10189.070123
69629.366819,74.020594,0.000000,10035.851024
69629.367130,74.020594,-74.020594,9806.022374
69629.367441,222.061783,0.000000,10035.851024
69629.367752,-296.082377,222.061783,10725.336972
69629.368063,0.000000,148.041188,10342.289223
69629.368374,0.000000,0.000000,10495.508323
69629.368685,148.041188,0.000000,10342.289223
69629.368996,296.082377,-222.061783,10112.460574
69629.369307,148.041188,0.000000,10265.679673
69629.369618,370.102971,74.020594,10112.460574
69629.369929,-296.082377,296.082377,10418.898773
69629.370240,-296.082377,0.000000,10418.898773
69629.370551,0.000000,0.000000,10342.289223
69629.370862,0.000000,148.041188,10955.165621
69629.371173,0.000000,74.020594,10572.117872
69629.371484,-148.041188,0.000000,10572.117872
69629.371795,0.000000,0.000000,10495.508323
69629.372106,74.020594,0.000000,10265.679673
69629.372417,296.082377,222.061783,9806.022374
69629.372728,592.164754,-296.082377,10265.679673
69629.373039,444.123565,-296.082377,10342.289223
69629.373350,444.123565,-370.102971,10725.336972
69629.373661,74.020594,0.000000,10342.289223
69629.373972,74.020594,0.000000,10342.289223
69629.374283,0.000000,-222.061783,10265.679673
69629.374594,0.000000,0.000000,10265.679673
69629.374905,0.000000,0.000000,10265.679673
69629.375216,0.000000,-148.041188,10342.289223
69629.375527,-296.082377,0.000000,10035.851024
69629.375838,74.020594,148.041188,10495.508323
69629.376149,0.000000,-370.102971,10572.117872
69629.376460,222.061783,0.000000,9959.241474
69629.376771,0.000000,74.020594,10035.851024
69629.377082,0.000000,74.020594,10495.508323
69629.377393,0.000000,0.000000,10495.508323
69629.377704,222.061783,0.000000,10112.460574
69629.378015,0.000000,0.000000,10265.679673
69629.378326,0.000000,74.020594,9882.631924
69629.378637,444.123565,0.000000,10112.460574
69629.378948,-296.082377,0.000000,10878.556072
69629.379259,74.020594,-148.041188,10265.679673
69629.379570,148.041188,-296.082377,10112.460574
69629.379881,74.020594,74.020594,10265.679673
69629.380192,0.000000,74.020594,10265.679673
69629.380503,0.000000,74.020594,10418.898773
69629.380814,222.061783,0.000000,10725.336972
69629.381125,0.000000,0.000000,10265.679673
69629.381436,74.020594,0.000000,10572.117872
69629.381747,0.000000,-222.061783,10265.679673
69629.382058,0.000000,0.000000,10495.508323
69629.382369,0.000000,222.061783,10725.336972
69629.382680,74.020594,-222.061783,10725.336972
69629.382991,0.000000,-592.164754,9882.631924
69629.383302,0.000000,0.000000,9959.241474
69629.383613,74.020594,0.000000,10342.289223
69629.383924,0.000000,0.000000,9882.631924
69629.384235,0.000000,0.000000,10189.070123
69629.384546,-148.041188,74.020594,10342.289223
69629.384857,-74.020594,296.082377,10725.336972
69629.385168,222.061783,296.082377,10342.289223
69629.385479,0.000000,-370.102971,10112.460574
69629.385790,222.061783,74.020594,10342.289223
69629.386101,-222.061783,0.000000,10418.898773
69629.386412,0.000000,0.000000,10342.289223
69629.386723,74.020594,-518.144159,10035.851024
69629.387034,222.061783,-370.102971,10265.679673
69629.387345,222.061783,74.020594,10265.679673
69629.387656,0.000000,0.000000,10035.851024
69629.387967,74.020594,-518.144159,10495.508323
69629.388278,-518.144159,0.000000,10342.289223
69629.388589,-518.144159,518.144159,9806.022374
69629.388900,0.000000,148.041188,9806.022374
69629.389211,148.041188,0.000000,10572.117872
69629.389522,0.000000,0.000000,10418.898773
69629.389833,0.000000,0.000000,10265.679673
69629.390144,0.000000,74.020594,10112.460574
69629.390455,-148.041188,0.000000,10418.898773
69629.390766,74.020594,0.000000,10189.070123
69629.391077,222.061783,148.041188,9729.412825
69629.391388,666.185348,222.061783,9882.631924
69629.391699,0.000000,0.000000,10342.289223
69629.392010,0.000000,0.000000,9882.631924
69629.392321,296.082377,0.000000,9806.022374
69629.392632,74.020594,74.020594,10342.289223
69629.392943,74.020594,0.000000,10189.070123
69629.393254,74.020594,-222.061783,10342.289223
69629.393565,148.041188,74.020594,10418.898773
69629.393876,0.000000,148.041188,9729.412825
69629.394187,-592.164754,-296.082377,10801.946522
69629.394498,148.041188,0.000000,10495.508323
69629.394809,0.000000,-296.082377,10418.898773
69629.395120,222.061783,0.000000,9806.022374
69629.395431,0.000000,0.000000,10265.679673
69629.395742,0.000000,0.000000,10418.898773
69629.396053,148.041188,0.000000,10189.070123
69629.396364,148.041188,0.000000,10189.070123
69629.396675,0.000000,0.000000,10189.070123
69629.396986,0.000000,222.061783,10035.851024
69629.397297,0.000000,0.000000,10265.679673
69629.397608,0.000000,0.000000,10265.679673
69629.397919,-296.082377,814.226536,10112.460574
69629.398230,-370.102971,148.041188,9652.803275
69629.398541,0.000000,74.020594,10189.070123
69629.398852,74.020594,-370.102971,10495.508323
69629.399163,0.000000,0.000000,10265.679673
69629.399474,0.000000,-444.123565,10112.460574
69629.399785,222.061783,-370.102971,10035.851024
69629.400096,222.061783,0.000000,10265.679673
69629.400407,222.061783,-148.041188,10112.460574
69629.400718,74.020594,0.000000,10878.556072
69629.401029,0.000000,296.082377,9882.631924
69629.401340,-74.020594,0.000000,10035.851024
69629.401651,-222.061783,222.061783,10342.289223
69629.401962,0.000000,0.000000,10342.289223
69629.402273,0.000000,0.000000,10342.289223
69629.402584,0.000000,74.020594,10265.679673
69629.402895,148.041188,0.000000,10265.679673
69629.403206,148.041188,-148.041188,10112.460574
69629.403517,148.041188,0.000000,10112.460574
69629.403828,222.061783,296.082377,10572.117872
69629.404139,-296.082377,-444.123565,10418.898773
69629.404450,-296.082377,296.082377,10189.070123
69629.404761,0.000000,0.000000,10189.070123
69629.405072,444.123565,222.061783,10342.289223
69629.405383,0.000000,0.000000,10112.460574
69629.405694,0.000000,0.000000,10418.898773
69629.406005,0.000000,0.000000,10572.117872
69629.406316,148.041188,0.000000,10265.679673
69629.406627,0.000000,222.061783,10112.460574
69629.406938,-444.123565,74.020594,10572.117872
69629.407249,0.000000,0.000000,10418.898773
69629.407560,74.020594,0.000000,10342.289223
69629.407871,148.041188,370.102971,10035.851024
69629.408182,0.000000,148.041188,10189.070123
69629.408493,-148.041188,0.000000,10418.898773
69629.408804,0.000000,0.000000,10342.289223
69629.409115,0.000000,0.000000,10189.070123
69629.409426,444.123565,-814.226536,10418.898773
69629.409737,0.000000,-370.102971,10495.508323
69629.410048,666.185348,222.061783,10342.289223
69629.410359,0.000000,0.000000,10801.946522
69629.410670,222.061783,222.061783,10495.508323
69629.410981,222.061783,0.000000,9959.241474
69629.411292,0.000000,0.000000,9959.241474
69629.411603,0.000000,148.041188,10112.460574
69629.411914,0.000000,0.000000,10418.898773
69629.412225,0.000000,-370.102971,10112.460574
69629.412536,0.000000,0.000000,10418.898773
69629.412847,74.020594,0.000000,10342.289223
69629.413158,0.000000,74.020594,10189.070123
69629.413469,0.000000,148.041188,10418.898773
69629.413780,148.041188,0.000000,10189.070123
69629.414091,296.082377,148.041188,10572.117872
69629.414402,518.144159,-148.041188,9806.022374
69629.414713,148.041188,0.000000,9959.241474
69629.415024,0.000000,222.061783,10189.070123
69629.415335,0.000000,-222.061783,10342.289223
69629.415646,0.000000,-148.041188,10189.070123
69629.415957,0.000000,0.000000,10112.460574
69629.416268,0.000000,0.000000,10035.851024
69629.416579,148.041188,0.000000,10265.679673
69629.416890,-518.144159,296.082377,9882.631924
69629.417201,-74.020594,0.000000,10112.460574
69629.417512,74.020594,0.000000,10342.289223
69629.417823,740.205942,-148.041188,10112.460574
69629.418134,148.041188,0.000000,10189.070123
69629.418445,148.041188,0.000000,10265.679673
69629.418756,148.041188,0.000000,10342.289223
69629.419067,74.020594,-148.041188,10189.070123
69629.419378,-148.041188,-148.041188,10418.898773
69629.419689,-148.041188,0.000000,10725.336972
69629.420000,-370.102971,148.041188,10725.336972
69629.420311,148.041188,0.000000,10418.898773
69629.420622,0.000000,222.061783,10265.679673
69629.420933,74.020594,0.000000,10418.898773
69629.421244,0.000000,0.000000,10342.289223
69629.421555,0.000000,-148.041188,10112.460574
69629.421866,74.020594,74.020594,10342.289223
69629.422177,222.061783,0.000000,10725.336972
69629.422488,0.000000,0.000000,10955.165621
69629.422799,148.041188,-148.041188,10801.946522
69629.423110,74.020594,-296.082377,10418.898773
69629.423421,-148.041188,0.000000,10955.165621
69629.423732,0.000000,0.000000,10418.898773
69629.424043,0.000000,0.000000,10342.289223
69629.424354,0.000000,0.000000,10342.289223
69629.424665,148.041188,0.000000,10189.070123
69629.424976,296.082377,148.041188,9959.241474
69629.425287,592.164754,0.000000,10648.727422
69629.425598,74.020594,0.000000,10648.727422
69629.425909,0.000000,148.041188,10725.336972
69629.426220,148.041188,0.000000,10418.898773
69629.426531,0.000000,0.000000,9959.241474
69629.426842,0.000000,-222.061783,10342.289223
69629.427153,0.000000,-148.041188,10495.508323
69629.427464,-148.041188,0.000000,10648.727422
69629.427775,-444.123565,222.061783,10342.289223
69629.428086,222.061783,0.000000,10725.336972
69629.428397,148.041188,-296.082377,9729.412825
69629.428708,592.164754,148.041188,10648.727422
69629.429019,148.041188,-148.041188,10189.070123
69629.429330,0.000000,222.061783,9959.241474
69629.429641,0.000000,148.041188,9959.241474
69629.429952,0.000000,0.000000,10418.898773
69629.430263,0.000000,0.000000,10265.679673
69629.430574,296.082377,0.000000,10572.117872
69629.430885,148.041188,0.000000,10035.851024
69629.431196,0.000000,0.000000,10265.679673
69629.431507,222.061783,0.000000,10572.117872
69629.431818,222.061783,74.020594,10035.851024
69629.432129,222.061783,0.000000,9729.412825
69629.432440,0.000000,518.144159,9882.631924
69629.432751,222.061783,0.000000,10189.070123
69629.433062,0.000000,222.061783,10572.117872
69629.433373,0.000000,0.000000,10112.460574
69629.433684,0.000000,0.000000,10189.070123
69629.433995,0.000000,-148.041188,10418.898773
69629.434306,0.000000,0.000000,10265.679673
69629.434617,148.041188,0.000000,10035.851024
69629.434928,222.061783,-592.164754,10035.851024
69629.435239,-74.020594,518.144159,10342.289223
69629.435550,222.061783,296.082377,10648.727422
69629.435861,148.041188,-444.123565,10265.679673
69629.436172,0.000000,-222.061783,10035.851024
69629.436483,74.020594,148.041188,10035.851024
69629.436794,0.000000,0.000000,10112.460574
69629.437105,148.041188,0.000000,10265.679673
69629.437416,0.000000,74.020594,10265.679673
69629.437727,0.000000,222.061783,9806.022374
69629.438038,222.061783,0.000000,10265.679673
69629.438349,-518.144159,222.061783,10112.460574
69629.438660,-518.144159,74.020594,9882.631924
69629.438971,0.000000,0.000000,10418.898773
69629.439282,148.041188,0.000000,10112.460574
69629.439593,74.020594,0.000000,10265.679673
69629.439904,0.000000,-222.061783,10342.289223
69629.440215,0.000000,0.000000,10265.679673
69629.440526,74.020594,148.041188,10418.898773
69629.440837,666.185348,74.020594,10342.289223
69629.441148,-814.226536,222.061783,10265.679673
69629.441459,0.000000,0.000000,10189.070123
69629.441770,0.000000,0.000000,10112.460574
69629.442081,0.000000,296.082377,10572.117872
69629.442392,74.020594,0.000000,10418.898773
69629.442703,0.000000,0.000000,10342.289223
69629.443014,74.020594,0.000000,10495.508323
69629.443325,222.061783,-148.041188,10035.851024
69629.443636,592.164754,-444.123565,10955.165621
69629.443947,74.020594,-370.102971,11338.213370
69629.444258,148.041188,0.000000,10495.508323
69629.444569,74.020594,0.000000,10495.508323
69629.444880,148.041188,296.082377,10725.336972
69629.445191,74.020594,0.000000,10342.289223
69629.445502,148.041188,0.000000,10418.898773
69629.445813,0.000000,0.000000,10189.070123
69629.446124,0.000000,222.061783,10418.898773
69629.446435,0.000000,74.020594,10265.679673
69629.446746,0.000000,0.000000,10495.508323
69629.447057,0.000000,0.000000,10342.289223
69629.447368,148.041188,-296.082377,10035.851024
69629.447679,0.000000,0.000000,10955.165621
69629.447990,0.000000,0.000000,10265.679673
69629.448301,222.061783,0.000000,10265.679673
69629.448612,0.000000,-296.082377,10342.289223
69629.448923,148.041188,0.000000,10112.460574
69629.449234,444.123565,0.000000,10112.460574
69629.449545,0.000000,0.000000,10495.508323
69629.449856,0.000000,0.000000,10572.117872
69629.450167,0.000000,0.000000,10112.460574
69629.450478,148.041188,222.061783,10189.070123
69629.450789,148.041188,296.082377,10189.070123
69629.451100,0.000000,0.000000,10035.851024
69629.451411,222.061783,-370.102971,10572.117872
69629.451722,0.000000,0.000000,10342.289223
69629.452033,814.226536,-148.041188,10265.679673
69629.452344,74.020594,0.000000,10035.851024
69629.452655,0.000000,0.000000,10342.289223
69629.452966,0.000000,0.000000,10265.679673
69629.453277,222.061783,74.020594,10265.679673
69629.453588,74.020594,222.061783,10418.898773
69629.453899,-222.061783,370.102971,9959.241474
69629.454210,-370.102971,296.082377,10495.508323
69629.454521,-148.041188,74.020594,10189.070123
69629.454832,0.000000,666.185348,10955.165621
69629.455143,0.000000,148.041188,10112.460574
69629.455454,0.000000,0.000000,10265.679673
69629.455765,-148.041188,0.000000,10572.117872
69629.456076,74.020594,-74.020594,10418.898773
69629.456387,-592.164754,0.000000,10342.289223
69629.456698,518.144159,-814.226536,10342.289223
69629.457009,0.000000,-74.020594,10418.898773
69629.457320,0.000000,0.000000,10265.679673
69629.457631,0.000000,0.000000,10342.289223
69629.457942,74.020594,74.020594,10342.289223
69629.458253,0.000000,222.061783,10342.289223
69629.458564,0.000000,0.000000,10495.508323
69629.458875,0.000000,0.000000,10342.289223
69629.459186,222.061783,444.123565,10112.460574
69629.459497,74.020594,74.020594,9729.412825
69629.459808,74.020594,444.123565,10035.851024
69629.460119,0.000000,222.061783,9882.631924
69629.460430,0.000000,0.000000,10342.289223
69629.460741,0.000000,0.000000,10265.679673
69629.461052,148.041188,0.000000,10342.289223
69629.461363,0.000000,74.020594,10265.679673
69629.461674,0.000000,0.000000,10572.117872
69629.461985,148.041188,222.061783,10801.946522
69629.462297,0.000000,-148.041188,10342.289223
69629.462608,222.061783,0.000000,10112.460574
69629.462919,74.020594,0.000000,10189.070123
69629.463230,0.000000,0.000000,10572.117872
69629.463541,222.061783,296.082377,10418.898773
69629.463852,0.000000,222.061783,9882.631924
69629.464163,518.144159,0.000000,11261.603821
69629.464474,222.061783,0.000000,10265.679673
69629.464786,0.000000,0.000000,10495.508323
69629.465097,0.000000,296.082377,10265.679673
69629.465408,0.000000,0.000000,10035.851024
69629.465719,74.020594,0.000000,10265.679673
69629.466030,74.020594,0.000000,10189.070123
69629.466341,0.000000,0.000000,10648.727422
69629.466652,0.000000,0.000000,10418.898773
69629.466963,-222.061783,0.000000,10725.336972
69629.467274,148.041188,74.020594,10189.070123
69629.467586,0.000000,0.000000,10495.508323
69629.467897,0.000000,-148.041188,10342.289223
69629.468208,0.000000,-222.061783,10265.679673
69629.468519,0.000000,0.000000,10265.679673
69629.468830,74.020594,0.000000,10342.289223
69629.469141,0.000000,0.000000,10725.336972
69629.469452,74.020594,-148.041188,10112.460574
69629.469763,148.041188,-222.061783,10418.898773
69629.470075,148.041188,0.000000,10342.289223
69629.470386,148.041188,0.000000,10495.508323
69629.470697,74.020594,-222.061783,10495.508323
69629.471008,0.000000,74.020594,10342.289223
69629.471319,0.000000,74.020594,10418.898773
69629.471630,0.000000,0.000000,10418.898773
69629.471941,-296.082377,74.020594,11031.775171
69629.472252,-296.082377,0.000000,10112.460574
69629.472564,-296.082377,222.061783,10418.898773
69629.472875,0.000000,0.000000,10189.070123
69629.473186,0.000000,0.000000,10189.070123
69629.473497,-222.061783,0.000000,10572.117872
69629.473808,-296.082377,74.020594,10265.679673
69629.474119,0.000000,0.000000,10265.679673
69629.474430,0.000000,74.020594,10265.679673
69629.474741,-370.102971,74.020594,10725.336972
69629.475053,148.041188,74.020594,10035.851024
69629.475364,518.144159,-592.164754,10648.727422
69629.475675,296.082377,222.061783,9806.022374
69629.475986,148.041188,74.020594,10035.851024
69629.476297,74.020594,222.061783,10495.508323
69629.476608,74.020594,0.000000,10265.679673
69629.476919,148.041188,0.000000,10189.070123
69629.477230,74.020594,0.000000,10189.070123
69629.477541,-296.082377,74.020594,10725.336972
69629.477853,0.000000,222.061783,10112.460574
69629.478164,0.000000,444.123565,10112.460574
69629.478475,0.000000,0.000000,10035.851024
69629.478786,0.000000,0.000000,10265.679673
69629.479097,148.041188,0.000000,10342.289223
69629.479408,0.000000,-296.082377,10265.679673
69629.479719,148.041188,74.020594,10265.679673
69629.480030,0.000000,74.020594,10342.289223
69629.480342,0.000000,0.000000,10878.556072
69629.480653,0.000000,74.020594,10342.289223
69629.480964,0.000000,0.000000,10189.070123
69629.481275,148.041188,-222.061783,10265.679673
69629.481586,0.000000,0.000000,10495.508323
69629.481897,-148.041188,-296.082377,10418.898773
69629.482208,0.000000,0.000000,9269.755526
69629.482519,74.020594,-74.020594,10955.165621
69629.482831,148.041188,-296.082377,10189.070123
69629.483142,74.020594,0.000000,10342.289223
69629.483453,0.000000,74.020594,10265.679673
69629.483764,148.041188,0.000000,10342.289223
69629.484075,0.000000,0.000000,10265.679673
69629.484386,0.000000,-222.061783,10418.898773
69629.484697,0.000000,148.041188,10418.898773
69629.485008,222.061783,0.000000,10648.727422
69629.485320,74.020594,222.061783,10342.289223
69629.485631,-370.102971,0.000000,10265.679673
69629.485942,0.000000,0.000000,10189.070123
69629.486253,0.000000,0.000000,10265.679673
69629.486564,148.041188,0.000000,10265.679673
69629.486875,148.041188,0.000000,10342.289223
69629.487186,0.000000,74.020594,10189.070123
69629.487497,148.041188,0.000000,10572.117872
69629.487808,-148.041188,-296.082377,10342.289223
69629.488120,74.020594,-74.020594,10418.898773
69629.488431,0.000000,148.041188,10572.117872
69629.488742,0.000000,-148.041188,10342.289223
69629.489053,0.000000,0.000000,10648.727422
69629.489364,74.020594,0.000000,10265.679673
69629.489675,0.000000,74.020594,10342.289223
69629.489986,-148.041188,74.020594,10265.679673
69629.490297,74.020594,74.020594,11108.384721
69629.490609,-148.041188,296.082377,10418.898773
69629.490920,296.082377,-296.082377,10265.679673
69629.491231,0.000000,-222.061783,10189.070123
69629.491542,0.000000,0.000000,10572.117872
69629.491853,222.061783,-148.041188,10035.851024
69629.492164,0.000000,0.000000,10112.460574
69629.492475,-222.061783,0.000000,10648.727422
69629.492786,0.000000,0.000000,10265.679673
69629.493098,148.041188,0.000000,10265.679673
69629.493409,444.123565,0.000000,10265.679673
69629.493720,296.082377,74.020594,10112.460574
69629.494031,74.020594,148.041188,9882.631924
69629.494342,148.041188,148.041188,10265.679673
69629.494653,0.000000,444.123565,10418.898773
69629.494964,0.000000,0.000000,10189.070123
69629.495275,0.000000,-296.082377,10342.289223
69629.495587,0.000000,0.000000,10342.289223
69629.495898,74.020594,0.000000,10342.289223
69629.496209,-148.041188,0.000000,10572.117872
69629.496520,0.000000,0.000000,10342.289223
69629.496831,148.041188,74.020594,10342.289223
69629.497142,222.061783,0.000000,10112.460574
69629.497453,666.185348,0.000000,9729.412825
69629.497764,0.000000,0.000000,10342.289223
69629.498075,296.082377,-222.061783,10035.851024
69629.498387,444.123565,0.000000,10342.289223
69629.498698,222.061783,0.000000,10035.851024
69629.499009,296.082377,-148.041188,10035.851024
69629.499320,0.000000,0.000000,10342.289223
69629.499631,-148.041188,0.000000,10572.117872
69629.499942,74.020594,-222.061783,10418.898773
69629.500253,0.000000,0.000000,10342.289223
69629.500564,74.020594,-962.267725,10342.289223
69629.500876,74.020594,0.000000,10035.851024
69629.501187,518.144159,148.041188,10035.851024
69629.501498,296.082377,0.000000,10265.679673
69629.501809,148.041188,-222.061783,10878.556072
69629.502120,0.000000,74.020594,10572.117872
69629.502431,296.082377,-296.082377,10878.556072
69629.502742,0.000000,0.000000,10495.508323
69629.503053,0.000000,296.082377,10572.117872
69629.503365,296.082377,444.123565,9959.241474
69629.503676,74.020594,296.082377,10418.898773
69629.503987,74.020594,-296.082377,10342.289223
69629.504298,148.041188,0.000000,10112.460574
69629.504609,74.020594,0.000000,9806.022374
69629.504920,0.000000,-222.061783,10265.679673
69629.505231,222.061783,0.000000,10265.679673
69629.505542,148.041188,0.000000,10189.070123
69629.505853,0.000000,74.020594,10265.679673
69629.506165,592.164754,-148.041188,10265.679673
69629.506476,-592.164754,74.020594,10418.898773
69629.506787,-296.082377,444.123565,10572.117872
69629.507098,-148.041188,148.041188,10418.898773
69629.507409,0.000000,148.041188,10418.898773
69629.507720,0.000000,-370.102971,10342.289223
69629.508031,148.041188,0.000000,10342.289223
69629.508342,0.000000,0.000000,10418.898773
69629.508654,-296.082377,0.000000,10342.289223
69629.508965,74.020594,-296.082377,10495.508323
69629.509276,444.123565,-296.082377,10265.679673
69629.509587,0.000000,0.000000,10418.898773
69629.509898,-74.020594,74.020594,10418.898773
69629.510209,0.000000,148.041188,10265.679673
69629.510520,-148.041188,148.041188,10265.679673
69629.510831,0.000000,0.000000,10189.070123
69629.511143,0.000000,0.000000,10189.070123
69629.511454,-296.082377,0.000000,10495.508323
69629.511765,-296.082377,148.041188,10878.556072
69629.512076,222.061783,0.000000,10265.679673
69629.512387,74.020594,0.000000,9959.241474
69629.512698,-222.061783,-222.061783,10418.898773
69629.513009,74.020594,0.000000,10342.289223
69629.513320,74.020594,222.061783,10418.898773
69629.513632,518.144159,-296.082377,10495.508323
69629.513943,74.020594,0.000000,10342.289223
69629.514254,0.000000,-148.041188,10342.289223
69629.514565,-222.061783,0.000000,9882.631924
69629.514876,74.020594,148.041188,10418.898773
69629.515187,74.020594,0.000000,10342.289223
69629.515498,0.000000,0.000000,10265.679673
69629.515809,0.000000,0.000000,10495.508323
69629.516120,0.000000,148.041188,9882.631924
69629.516432,296.082377,74.020594,10342.289223
69629.516743,592.164754,222.061783,10112.460574
69629.517054,74.020594,0.000000,10342.289223
69629.517365,444.123565,0.000000,9729.412825
69629.517676,0.000000,0.000000,10495.508323
69629.517987,0.000000,0.000000,10189.070123
69629.518298,0.000000,-148.041188,10265.679673
69629.518609,-148.041188,0.000000,10418.898773
69629.518921,74.020594,444.123565,10342.289223
69629.519232,-296.082377,0.000000,9882.631924
69629.519543,0.000000,-370.102971,9806.022374
69629.519854,74.020594,-222.061783,10265.679673
69629.520165,222.061783,222.061783,10112.460574
69629.520476,74.020594,0.000000,10265.679673
69629.520787,0.000000,0.000000,10495.508323
69629.521098,74.020594,-148.041188,10112.460574
69629.521410,0.000000,-148.041188,10265.679673
69629.521721,370.102971,0.000000,10725.336972
69629.522032,222.061783,74.020594,10342.289223
69629.522343,0.000000,0.000000,10572.117872
69629.522654,-74.020594,-222.061783,10495.508323
69629.522965,148.041188,148.041188,10112.460574
69629.523276,148.041188,-148.041188,10342.289223
69629.523587,0.000000,-296.082377,10265.679673
69629.523899,0.000000,74.020594,10342.289223
69629.524210,0.000000,0.000000,10495.508323
69629.524521,148.041188,-148.041188,9576.193725
69629.524832,0.000000,0.000000,10265.679673
69629.525143,0.000000,0.000000,10648.727422
69629.525454,74.020594,0.000000,10418.898773
69629.525765,222.061783,0.000000,10112.460574
69629.526076,74.020594,0.000000,9959.241474
69629.526387,0.000000,0.000000,10495.508323
69629.526699,0.000000,74.020594,10418.898773
69629.527010,74.020594,0.000000,10265.679673
69629.527321,0.000000,0.000000,9652.803275
69629.527632,0.000000,74.020594,9959.241474
69629.527943,-74.020594,592.164754,10112.460574
69629.528254,-296.082377,0.000000,10725.336972
69629.528565,0.000000,0.000000,10189.070123
69629.528876,148.041188,0.000000,10418.898773
69629.529188,0.000000,0.000000,10342.289223
69629.529499,0.000000,0.000000,10572.117872
69629.529810,0.000000,148.041188,10112.460574
69629.530121,0.000000,0.000000,9346.365076
69629.530432,0.000000,0.000000,10265.679673
69629.530743,0.000000,0.000000,10342.289223
69629.531054,0.000000,0.000000,10418.898773
69629.531365,74.020594,0.000000,10418.898773
69629.531677,222.061783,74.020594,9652.803275
69629.531988,-296.082377,-296.082377,10418.898773
69629.532299,222.061783,0.000000,9806.022374
69629.532610,0.000000,0.000000,10035.851024
69629.532921,0.000000,0.000000,10265.679673
69629.533232,148.041188,0.000000,10189.070123
69629.533543,0.000000,0.000000,10342.289223
69629.533854,0.000000,0.000000,10418.898773
69629.534165,0.000000,0.000000,10189.070123
69629.534477,222.061783,74.020594,10418.898773
69629.534788,0.000000,296.082377,10112.460574
69629.535099,0.000000,518.144159,9499.584175
69629.535410,0.000000,0.000000,10035.851024
69629.535721,148.041188,0.000000,10265.679673
69629.536032,370.102971,74.020594,10342.289223
69629.536343,0.000000,0.000000,10418.898773
69629.536654,222.061783,0.000000,10189.070123
69629.536966,0.000000,0.000000,10495.508323
69629.537277,74.020594,0.000000,10112.460574
69629.537588,0.000000,-370.102971,9806.022374
69629.537899,0.000000,0.000000,10648.727422
69629.538210,0.000000,-222.061783,10265.679673
69629.538521,0.000000,148.041188,10265.679673
69629.538832,296.082377,0.000000,9806.022374
69629.539143,0.000000,0.000000,10265.679673
69629.539455,0.000000,0.000000,10265.679673
69629.539766,0.000000,0.000000,10572.117872
69629.540077,0.000000,0.000000,10572.117872
69629.540388,74.020594,0.000000,11261.603821
69629.540699,444.123565,-518.144159,10418.898773
69629.541010,370.102971,0.000000,10648.727422
69629.541321,0.000000,0.000000,10495.508323
69629.541632,296.082377,222.061783,10342.289223
69629.541944,74.020594,0.000000,10265.679673
69629.542255,148.041188,0.000000,10265.679673
69629.542566,0.000000,0.000000,10035.851024
69629.542877,74.020594,0.000000,10495.508323
69629.543188,222.061783,0.000000,10725.336972
69629.543499,-148.041188,592.164754,10112.460574
69629.543810,518.144159,0.000000,10648.727422
69629.544121,74.020594,-148.041188,10418.898773
69629.544432,148.041188,296.082377,10572.117872
69629.544744,74.020594,0.000000,10342.289223
69629.545055,74.020594,0.000000,10265.679673
69629.545366,74.020594,0.000000,10035.851024
69629.545677,0.000000,-148.041188,10189.070123
69629.545988,0.000000,0.000000,10189.070123
69629.546299,0.000000,74.020594,10342.289223
69629.546610,74.020594,0.000000,10265.679673
69629.546921,74.020594,0.000000,10418.898773
69629.547233,-370.102971,74.020594,10342.289223
69629.547544,0.000000,296.082377,10035.851024
69629.547855,444.123565,0.000000,10418.898773
69629.548166,666.185348,-222.061783,9959.241474
69629.548477,74.020594,0.000000,10342.289223
69629.548788,444.123565,0.000000,9959.241474
69629.549099,0.000000,0.000000,10342.289223
69629.549410,74.020594,-148.041188,10112.460574
69629.549722,0.000000,0.000000,10035.851024
69629.550033,74.020594,-296.082377,10189.070123
69629.550344,-74.020594,518.144159,10572.117872
69629.550655,74.020594,-592.164754,10342.289223
69629.550966,222.061783,74.020594,9652.803275
69629.551277,74.020594,0.000000,10265.679673
69629.551588,0.000000,370.102971,10342.289223
69629.551899,0.000000,0.000000,10418.898773
69629.552211,74.020594,0.000000,10265.679673
69629.552522,0.000000,0.000000,10572.117872
69629.552833,0.000000,74.020594,10648.727422
69629.553144,148.041188,-296.082377,10112.460574
69629.553455,0.000000,-148.041188,10418.898773
69629.553766,-148.041188,222.061783,10265.679673
69629.554077,222.061783,148.041188,10189.070123
69629.554388,-296.082377,370.102971,10648.727422
69629.554699,0.000000,0.000000,10342.289223
69629.555011,-148.041188,0.000000,10265.679673
69629.555322,0.000000,0.000000,10265.679673
69629.555633,148.041188,148.041188,10648.727422
69629.555944,-148.041188,222.061783,10035.851024
69629.556255,0.000000,296.082377,10342.289223
69629.556566,222.061783,74.020594,10725.336972
69629.556877,0.000000,0.000000,10342.289223
69629.557188,148.041188,0.000000,10265.679673
69629.557500,74.020594,0.000000,10112.460574
69629.557811,0.000000,0.000000,10189.070123
69629.558122,74.020594,-148.041188,10265.679673
69629.558433,0.000000,0.000000,10265.679673
69629.558744,518.144159,0.000000,10495.508323
69629.559055,74.020594,-222.061783,9806.022374
69629.559366,-74.020594,0.000000,10265.679673
69629.559677,518.144159,0.000000,10495.508323
69629.559989,0.000000,0.000000,10342.289223
69629.560300,148.041188,0.000000,9959.241474
69629.560611,74.020594,0.000000,10035.851024
69629.560922,148.041188,0.000000,10418.898773
69629.561233,74.020594,0.000000,10495.508323
69629.561544,0.000000,296.082377,10189.070123
69629.561855,74.020594,0.000000,10342.289223
69629.562166,74.020594,-222.061783,10342.289223
69629.562478,0.000000,-222.061783,10342.289223
69629.562789,-222.061783,296.082377,10725.336972
69629.563100,222.061783,1406.391290,10878.556072
69629.563411,1480.411884,2368.659014,9882.631924
69629.563722,0.000000,1184.329507,10112.460574
69629.564033,-1628.453072,148.041188,10801.946522
69629.564344,-888.247130,1628.453072,10955.165621
69629.564655,1258.350101,2886.803174,9959.241474
69629.564966,-370.102971,1850.514855,9806.022374
69629.565277,-592.164754,592.164754,10725.336972
69629.565588,370.102971,296.082377,10342.289223
69629.565899,-592.164754,0.000000,10495.508323
69629.566210,666.185348,-888.247130,9193.145976
69629.566521,-444.123565,0.000000,8733.488677
69629.566832,-1036.288319,2368.659014,10495.508323
69629.567144,0.000000,2146.597232,12640.575717
69629.567455,-1628.453072,888.247130,10035.851024
69629.567766,-444.123565,1554.432478,9346.365076
69629.568077,1332.370696,4219.173869,9959.241474
69629.568388,-296.082377,4737.318029,11261.603821
69629.568699,-2072.576638,4737.318029,11644.651570
69629.569010,0.000000,2886.803174,10342.289223
69629.569321,-592.164754,3404.947333,9959.241474
69629.569632,-1628.453072,3256.906145,10725.336972
69629.569943,-2294.638420,4145.153275,11184.994271
69629.570254,-1924.535449,3404.947333,10189.070123
69629.570565,-2146.597232,2664.741391,9882.631924
69629.570876,-2368.659014,2960.823768,10112.460574
69629.571187,-2664.741391,3552.988522,11031.775171
69629.571498,-2368.659014,4589.276840,10342.289223
69629.571809,-1776.494261,3478.967927,9269.755526
69629.572120,-2072.576638,3404.947333,9806.022374
69629.572431,-2664.741391,3775.050304,9959.241474
69629.572742,-2368.659014,5107.421000,10801.946522
69629.573053,-3330.926739,3627.009116,10648.727422
69629.573364,-4737.318029,1850.514855,10265.679673
69629.573675,-2960.823768,2368.659014,10189.070123
69629.573986,-2590.720797,3404.947333,9499.584175
69629.574298,-3552.988522,2738.761985,10265.679673
69629.574609,-4219.173869,1702.473667,10189.070123
69629.574920,-4737.318029,2960.823768,10265.679673
69629.575231,-5551.544565,2960.823768,10112.460574
69629.575542,-7105.977043,3478.967927,10955.165621
69629.575853,-9030.512492,3997.112087,11338.213370
69629.576164,-10066.800811,3997.112087,11797.870669
69629.576475,-9400.615463,2886.803174,11721.261119
69629.576786,-8734.430116,1702.473667,10342.289223
69629.577097,-7328.038826,2294.638420,9269.755526
69629.577408,-5847.626942,2516.700203,9729.412825
69629.577719,-5329.482782,1998.556043,9499.584175
69629.578030,-5995.668130,1702.473667,9499.584175
69629.578341,-3256.906145,2220.617826,7354.516781
69629.578652,-5551.544565,1850.514855,8810.098227
69629.578963,-8438.347739,814.226536,10418.898773
69629.579274,-9104.533087,1406.391290,11568.042020
69629.579585,-8956.491898,2368.659014,11338.213370
69629.579896,-7994.224174,2368.659014,10878.556072
69629.580207,-6069.688724,3997.112087,10418.898773
69629.580518,-3775.050304,5625.565159,10112.460574
69629.580829,-3108.864956,7179.997637,9499.584175
69629.581140,-2664.741391,6587.832884,8656.879127
69629.581451,-4737.318029,4959.379811,9039.926876
69629.581763,-7105.977043,3034.844362,9806.022374
69629.582074,-8734.430116,4293.194464,12334.137518
69629.582385,-8216.285956,3256.906145,12563.966167
69629.582696,-7624.121203,1554.432478,11184.994271
69629.583007,-4145.153275,1110.308913,9806.022374
69629.583318,-1924.535449,1184.329507,9422.974625
69629.583629,-1110.308913,1184.329507,9116.536426
69629.583940,0.000000,3404.947333,9499.584175
69629.584251,74.020594,6439.791695,9806.022374
69629.584562,-74.020594,7105.977043,9806.022374
69629.584873,-3701.029710,4737.318029,10342.289223
69629.585184,-5699.585753,2886.803174,11644.651570
69629.585495,-6439.791695,3404.947333,12487.356617
69629.585806,-6069.688724,3627.009116,11951.089769
69629.586117,-4589.276840,4515.256246,11491.432470
69629.586428,-3108.864956,4219.173869,10112.460574
69629.586739,-1332.370696,2886.803174,9652.803275
69629.587050,-1332.370696,1702.473667,8810.098227
69629.587361,74.020594,3182.885551,9576.193725
69629.587672,1110.308913,5625.565159,10035.851024
69629.587983,592.164754,2664.741391,9882.631924
69629.588294,0.000000,-2146.597232,9346.365076
69629.588605,-888.247130,-2294.638420,7814.174080
69629.588917,2146.597232,1554.432478,9729.412825
69629.589228,2812.782580,4145.153275,10725.336972
69629.589539,1850.514855,3627.009116,10495.508323
69629.589850,1628.453072,1924.535449,9882.631924
69629.590161,2146.597232,2590.720797,8886.707777
69629.590472,3478.967927,7698.141797,10112.460574
69629.590783,1924.535449,7105.977043,11644.651570
69629.591094,-3108.864956,1110.308913,12410.747068
69629.591405,-2812.782580,-222.061783,11797.870669
69629.591716,-296.082377,2220.617826,10725.336972
69629.592027,-148.041188,1554.432478,11108.384721
69629.592338,-2442.679609,-1628.453072,12180.918418
69629.592649,-222.061783,-740.205942,11797.870669
69629.592960,4145.153275,1850.514855,10265.679673
69629.593271,7031.956449,3108.864956,7277.907231
69629.593582,4367.215058,-74.020594,8197.221829
69629.593893,444.123565,-3182.885551,9499.584175
69629.594204,-1110.308913,-740.205942,11491.432470
69629.594515,0.000000,1258.350101,11414.822920
69629.594826,-1776.494261,-1184.329507,10342.289223
69629.595137,-6291.750507,-296.082377,10801.946522
69629.595448,-2368.659014,5329.482782,13253.452115
69629.595759,296.082377,6957.935855,12640.575717
69629.596070,592.164754,2664.741391,9959.241474
69629.596382,1332.370696,-1406.391290,7354.516781
69629.596693,1850.514855,-148.041188,7354.516781
69629.597004,370.102971,518.144159,10572.117872
69629.597315,-3552.988522,-3108.864956,11874.480219
69629.597626,-4145.153275,-3627.009116,12257.527968
69629.597937,74.020594,592.164754,9499.584175
69629.598248,2294.638420,1036.288319,9193.145976
69629.598559,-1628.453072,-2146.597232,9116.536426
69629.598870,-666.185348,0.000000,9193.145976
69629.599181,2738.761985,4145.153275,9269.755526
69629.599492,-592.164754,3108.864956,9882.631924
69629.599803,-4885.359217,518.144159,11644.651570
69629.600114,-5625.565159,3997.112087,11644.651570
69629.600425,-2960.823768,6735.874072,11568.042020
69629.600736,-4219.173869,1850.514855,11184.994271
69629.601047,-5403.503377,-2368.659014,9269.755526
69629.601358,-2960.823768,592.164754,9806.022374
69629.601669,-296.082377,2812.782580,11184.994271
69629.601980,-2516.700203,-1480.411884,11491.432470
69629.602291,-1554.432478,-3404.947333,8044.002729
69629.602602,2442.679609,814.226536,7354.516781
69629.602913,370.102971,1628.453072,9806.022374
69629.603224,-2886.803174,-4367.215058,11568.042020
69629.603536,-5329.482782,-2368.659014,10189.070123
69629.603847,1258.350101,3108.864956,9193.145976
69629.604158,2368.659014,3034.844362,10725.336972
69629.604469,-4811.338623,-962.267725,10878.556072
69629.604780,-2960.823768,1850.514855,10572.117872
69629.605091,2886.803174,6439.791695,9806.022374
69629.605402,962.267725,1628.453072,9652.803275
69629.605713,-4811.338623,-2960.823768,9346.365076
69629.606024,-2516.700203,-2146.597232,10878.556072
69629.606335,-1850.514855,-1184.329507,12563.966167
69629.606646,-2294.638420,-1406.391290,11721.261119
69629.606957,1258.350101,-1332.370696,8503.660028
69629.607268,2368.659014,-1628.453072,7584.345430
69629.607579,1702.473667,-2516.700203,10878.556072
69629.607890,-444.123565,-3701.029710,9806.022374
69629.608201,-296.082377,-1110.308913,9422.974625
69629.608512,2738.761985,1554.432478,11031.775171
69629.608823,74.020594,1110.308913,11644.651570
69629.609134,-3627.009116,-222.061783,11491.432470
69629.609445,-2146.597232,1036.288319,10648.727422
69629.609756,1332.370696,2442.679609,10801.946522
69629.610067,666.185348,1702.473667,11108.384721
69629.610378,-1184.329507,-1406.391290,10648.727422
69629.610689,-1036.288319,-1554.432478,11184.994271
69629.611001,1258.350101,-1184.329507,11031.775171
69629.611312,1850.514855,-888.247130,9806.022374
69629.611623,2738.761985,-222.061783,9576.193725
69629.611934,4219.173869,-592.164754,9806.022374
69629.612245,1628.453072,-3034.844362,9422.974625
69629.612556,1554.432478,-3034.844362,9652.803275
69629.612867,4737.318029,222.061783,9729.412825
69629.613178,4737.318029,1110.308913,10342.289223
69629.613489,740.205942,0.000000,11644.651570
69629.613800,1850.514855,3034.844362,10495.508323
69629.614111,5255.462188,4589.276840,9039.926876
69629.614422,2072.576638,0.000000,10342.289223
69629.614733,-1480.411884,-1702.473667,9346.365076
69629.615044,-592.164754,2220.617826,10878.556072
69629.615355,-814.226536,740.205942,14402.595362
69629.615666,-3627.009116,-2960.823768,13253.452115
69629.615977,1110.308913,148.041188,9116.536426
69629.616288,6217.729913,1406.391290,6205.373534
69629.616599,2368.659014,-1554.432478,10035.851024
69629.616910,-222.061783,-2516.700203,12180.918418
69629.617221,740.205942,-888.247130,9959.241474
69629.617532,1258.350101,-296.082377,10725.336972
69629.617843,1332.370696,-1036.288319,10418.898773
69629.618155,-1258.350101,0.000000,9806.022374
69629.618466,-1480.411884,148.041188,11644.651570
69629.618777,740.205942,592.164754,11874.480219
69629.619088,0.000000,-666.185348,10035.851024
69629.619399,-592.164754,-962.267725,9806.022374
69629.619710,666.185348,-740.205942,11491.432470
69629.620021,444.123565,-370.102971,10801.946522
69629.620332,1184.329507,-1332.370696,10725.336972
69629.620643,3775.050304,-2072.576638,9499.584175
69629.620954,4737.318029,-3108.864956,8197.221829
69629.621265,1924.535449,-5181.441594,10112.460574
69629.621576,1332.370696,-4737.318029,10112.460574
69629.621887,3552.988522,1110.308913,9806.022374
69629.622198,5255.462188,2960.823768,11261.603821
69629.622509,1036.288319,-3034.844362,12027.699319
69629.622820,-740.205942,-4441.235652,10878.556072
69629.623131,5625.565159,2812.782580,8044.002729
69629.623442,8290.306550,4885.359217,9116.536426
69629.623753,-296.082377,-2590.720797,10495.508323
69629.624064,-3849.070898,-3849.070898,12027.699319
69629.624375,814.226536,74.020594,12180.918418
69629.624686,-74.020594,-2294.638420,10725.336972
69629.624997,-4071.132681,-6291.750507,11338.213370
69629.625308,-1850.514855,-4885.359217,12104.308868
69629.625620,2812.782580,-666.185348,10801.946522
69629.625931,3256.906145,-3034.844362,8963.317327
69629.626242,2368.659014,-7105.977043,9499.584175
69629.626553,2220.617826,-6587.832884,8427.050478
69629.626864,4367.215058,-3478.967927,9346.365076
69629.627175,3701.029710,-1628.453072,11261.603821
69629.627486,1850.514855,-4219.173869,10035.851024
69629.627797,1406.391290,-5329.482782,9806.022374
69629.628108,370.102971,-3330.926739,11568.042020
69629.628419,2960.823768,-370.102971,11338.213370
69629.628730,3849.070898,-1036.288319,9806.022374
69629.629041,3552.988522,-4441.235652,9499.584175
69629.629352,2886.803174,-4959.379811,10342.289223
69629.629663,2220.617826,-3552.988522,10189.070123
69629.629974,2516.700203,-2812.782580,11108.384721
69629.630285,2368.659014,-3182.885551,10955.165621
69629.630596,2368.659014,-4589.276840,10955.165621
69629.630907,1702.473667,-6513.812290,10572.117872
69629.631218,4885.359217,-3923.091493,10265.679673
69629.631529,10362.883188,888.247130,8120.612279
69629.631840,9178.553681,-592.164754,7967.393179
69629.632151,4367.215058,-4737.318029,10189.070123
69629.632462,3182.885551,-4737.318029,9806.022374
69629.632774,3182.885551,-2516.700203,10112.460574
69629.633085,370.102971,-1850.514855,12870.404366
69629.633396,148.041188,-962.267725,13330.061665
69629.633707,1554.432478,-2220.617826,12027.699319
69629.634018,1406.391290,-6217.729913,11184.994271
69629.634329,4663.297435,-6069.688724,9116.536426
69629.634640,6809.894666,-2590.720797,8656.879127
69629.634951,5181.441594,-74.020594,10342.289223
69629.635262,5403.503377,-1406.391290,11108.384721
69629.635573,4367.215058,-3256.906145,8963.317327
69629.635884,3627.009116,-4959.379811,9193.145976
69629.636195,1776.494261,-5403.503377,10572.117872
69629.636506,222.061783,-3404.947333,11721.261119
69629.636817,1332.370696,-1998.556043,12334.137518
69629.637128,3627.009116,-3256.906145,11184.994271
69629.637439,5329.482782,-4219.173869,8273.831378
69629.637750,6735.874072,-2738.761985,7431.126331
69629.638061,5773.606348,-2442.679609,9959.241474
69629.638372,3552.988522,-3775.050304,10801.946522
69629.638683,3627.009116,-4663.297435,10955.165621
69629.638994,3478.967927,-6143.709319,10495.508323
69629.639305,3478.967927,-5181.441594,10418.898773
69629.639616,4737.318029,-2738.761985,11184.994271
69629.639927,5921.647536,-1036.288319,10572.117872
69629.640239,7031.956449,-1998.556043,9499.584175
69629.640550,6735.874072,-1480.411884,8580.269578
69629.640861,4367.215058,-518.144159,9652.803275
69629.641172,814.226536,222.061783,11568.042020
69629.641483,-2812.782580,-740.205942,14019.547613
69629.641794,-2738.761985,-3034.844362,13330.061665
69629.642105,-814.226536,-5329.482782,11568.042020
69629.642416,814.226536,-5995.668130,10112.460574
69629.642727,4071.132681,-4515.256246,10035.851024
69629.643038,7920.203579,-3478.967927,9116.536426
69629.643349,8216.285956,-4219.173869,7967.393179
69629.643660,9252.574275,-3627.009116,7814.174080
69629.643971,7402.059420,-3478.967927,8197.221829
69629.644282,2294.638420,-2516.700203,10648.727422
69629.644593,-222.061783,-2368.659014,13176.842566
69629.644904,-148.041188,-2368.659014,12640.575717
69629.645215,-592.164754,-2812.782580,11108.384721
69629.645526,222.061783,-2812.782580,11031.775171
69629.645837,2072.576638,-1850.514855,11338.213370
69629.646148,1998.556043,-1702.473667,9959.241474
69629.646459,3478.967927,-2886.803174,9806.022374
69629.646770,3701.029710,-3701.029710,9499.584175
69629.647081,3330.926739,-4737.318029,9652.803275
69629.647392,2812.782580,-5773.606348,10342.289223
69629.647704,2442.679609,-6957.935855,10955.165621
69629.648015,3182.885551,-7105.977043,9959.241474
69629.648326,5107.421000,-5329.482782,9422.974625
69629.648637,6143.709319,-3108.864956,8963.317327
69629.648948,5403.503377,-1776.494261,9576.193725
69629.649259,3701.029710,-1406.391290,10342.289223
69629.649570,2220.617826,222.061783,11031.775171
69629.649881,1850.514855,1480.411884,11031.775171
69629.650192,-666.185348,444.123565,12257.527968
69629.650503,-2072.576638,-1406.391290,12870.404366
69629.650814,-3034.844362,-2368.659014,11721.261119
69629.651125,-888.247130,-2146.597232,11491.432470
69629.651436,740.205942,-2220.617826,10342.289223
69629.651747,888.247130,-2368.659014,9652.803275
69629.652058,1480.411884,-2960.823768,10189.070123
69629.652369,2368.659014,-3701.029710,9652.803275
69629.652680,2960.823768,-3256.906145,8350.440928
69629.652991,2812.782580,-4145.153275,8503.660028
69629.653302,814.226536,-3256.906145,9193.145976
69629.653613,0.000000,-2368.659014,11031.775171
69629.653924,-148.041188,-1924.535449,10955.165621
69629.654235,0.000000,-1998.556043,10265.679673
69629.654546,0.000000,-1184.329507,10189.070123
69629.654858,888.247130,-1184.329507,11031.775171
69629.655169,-296.082377,-1998.556043,11184.994271
69629.655480,1702.473667,-2072.576638,10112.460574
69629.655791,3849.070898,-3256.906145,9806.022374
69629.656102,2664.741391,-5403.503377,9116.536426
69629.656413,2886.803174,-6143.709319,10418.898773
69629.656724,3923.091493,-5699.585753,9806.022374
69629.657035,3478.967927,-6069.688724,9806.022374
69629.657346,4293.194464,-7179.997637,10112.460574
69629.657657,5181.441594,-6809.894666,9576.193725
69629.657968,5773.606348,-5625.565159,9806.022374
69629.658279,7031.956449,-4737.318029,9959.241474
69629.658590,6143.709319,-3478.967927,9806.022374
69629.658901,5625.565159,-3034.844362,10342.289223
69629.659212,6587.832884,-1924.535449,11491.432470
69629.659523,2960.823768,-3182.885551,11568.042020
69629.659834,1110.308913,-3330.926739,12257.527968
69629.660145,2516.700203,-3256.906145,12563.966167
69629.660456,2220.617826,-3923.091493,11874.480219
69629.660767,2886.803174,-4441.235652,12027.699319
69629.661078,6143.709319,-4293.194464,10801.946522
69629.661389,7476.080014,-4589.276840,10418.898773
69629.661700,8512.368333,-4811.338623,9116.536426
69629.662011,9178.553681,-3923.091493,8503.660028
69629.662323,9548.656652,-3330.926739,7814.174080
69629.662634,7846.182985,-3034.844362,9806.022374
69629.662945,4885.359217,-3849.070898,10418.898773
69629.663256,4737.318029,-4145.153275,10342.289223
69629.663567,4737.318029,-3701.029710,11338.213370
69629.663879,3404.947333,-2516.700203,11721.261119
69629.664190,5699.585753,-1480.411884,12104.308868
69629.664501,7920.203579,-1702.473667,9499.584175
69629.664812,8216.285956,-1776.494261,8427.050478
69629.665123,9992.780217,-1258.350101,8810.098227
69629.665434,7772.162391,-2960.823768,9499.584175
69629.665745,3627.009116,-4071.132681,10878.556072
69629.666056,4071.132681,-3330.926739,12180.918418
69629.666367,3478.967927,-3330.926739,11031.775171
69629.666678,2960.823768,-3256.906145,11261.603821
69629.666989,4737.318029,-1480.411884,10572.117872
69629.667300,5921.647536,-1554.432478,9039.926876
69629.667611,4663.297435,-3775.050304,9422.974625
69629.667922,3701.029710,-4367.215058,9806.022374
69629.668233,4071.132681,-2368.659014,9959.241474
69629.668544,2368.659014,-2442.679609,11338.213370
69629.668855,1480.411884,-3997.112087,12870.404366
69629.669166,3552.988522,-4663.297435,10495.508323
69629.669477,4663.297435,-6809.894666,8656.879127
69629.669789,4663.297435,-5403.503377,8963.317327
69629.670100,6217.729913,-814.226536,9499.584175
69629.670411,4293.194464,740.205942,10418.898773
69629.670722,148.041188,-2664.741391,11414.822920
69629.671033,-1258.350101,-5107.421000,11414.822920
69629.671344,-740.205942,-2738.761985,10572.117872
69629.671655,-666.185348,-592.164754,11951.089769
69629.671966,0.000000,-2072.576638,12870.404366
69629.672277,296.082377,-5181.441594,8963.317327
69629.672588,2590.720797,-5699.585753,8197.221829
69629.672899,3552.988522,-3330.926739,8580.269578
69629.673210,3108.864956,74.020594,9499.584175
69629.673521,1332.370696,-1702.473667,10801.946522
69629.673832,-1628.453072,-6069.688724,11797.870669
69629.674143,222.061783,-7772.162391,10725.336972
69629.674454,1184.329507,-5995.668130,9269.755526
69629.674765,2294.638420,-2590.720797,10955.165621
69629.675076,2812.782580,-1998.556043,11568.042020
69629.675387,3330.926739,-3552.988522,9882.631924
69629.675698,4145.153275,-3997.112087,7660.954980
69629.676009,4589.276840,-2072.576638,8350.440928
69629.676321,-444.123565,-2664.741391,11874.480219
69629.676632,-5551.544565,-3478.967927,14019.547613
69629.676943,-1776.494261,-1332.370696,13636.499864
69629.677254,740.205942,-2516.700203,11031.775171
69629.677565,-1258.350101,-5255.462188,9882.631924
69629.677876,296.082377,-3627.009116,10878.556072
69629.678187,2368.659014,-1184.329507,9346.365076
69629.678498,3330.926739,-592.164754,9269.755526
69629.678809,2146.597232,-3182.885551,8656.879127
69629.679120,370.102971,-4219.173869,9576.193725
69629.679431,0.000000,-2368.659014,11644.651570
69629.679742,1850.514855,-814.226536,12257.527968
69629.680053,2960.823768,-1258.350101,9116.536426
69629.680364,5625.565159,-2368.659014,7431.126331
69629.680675,6957.935855,-1850.514855,7814.174080
69629.680986,2516.700203,-2664.741391,10112.460574
69629.681297,666.185348,-2146.597232,10572.117872
69629.681608,2960.823768,3404.947333,11108.384721
69629.681919,3034.844362,3849.070898,11261.603821
69629.682230,888.247130,-888.247130,11108.384721
69629.682541,0.000000,-2220.617826,9576.193725
69629.682853,1258.350101,444.123565,11031.775171
69629.683164,2886.803174,-962.267725,11568.042020
69629.683475,888.247130,-3552.988522,11108.384721
69629.683786,1998.556043,-1332.370696,9806.022374
69629.684097,5107.421000,1480.411884,9422.974625
69629.684408,4663.297435,-2294.638420,9806.022374
69629.684719,1850.514855,-5625.565159,11414.822920
69629.685030,6069.688724,-3404.947333,10265.679673
69629.685341,2368.659014,-6365.771101,9882.631924
69629.685652,-3404.947333,-6217.729913,12180.918418
69629.685963,-1258.350101,1480.411884,12257.527968
69629.686274,3034.844362,814.226536,11951.089769
69629.686585,1184.329507,-3775.050304,13100.233016
69629.686896,3034.844362,-4959.379811,7354.516781
69629.687207,2812.782580,444.123565,7660.954980
69629.687518,5107.421000,1184.329507,9729.412825
69629.687829,5255.462188,2960.823768,13483.280765
69629.688140,-1628.453072,-1850.514855,9729.412825
69629.688451,444.123565,-2738.761985,9806.022374
69629.688762,4737.318029,370.102971,7890.783629
69629.689073,3627.009116,-3997.112087,7890.783629
69629.689385,-2146.597232,-3775.050304,13713.109414
69629.689696,3997.112087,-1110.308913,7967.393179
69629.690007,3182.885551,3849.070898,8503.660028
69629.690318,2368.659014,-740.205942,9116.536426
69629.690629,740.205942,-592.164754,9652.803275
69629.690940,-2516.700203,2294.638420,9959.241474
69629.691251,-1998.556043,888.247130,12793.794817
69629.691562,74.020594,666.185348,12257.527968
69629.691873,-2442.679609,2072.576638,8733.488677
69629.692184,-888.247130,3034.844362,12257.527968
69629.692495,-1776.494261,-518.144159,11568.042020
69629.692806,-3923.091493,-3552.988522,8503.660028
69629.693117,0.000000,-2664.741391,10112.460574
69629.693428,222.061783,1480.411884,12104.308868
69629.693739,-2960.823768,1406.391290,10878.556072
69629.694050,-1480.411884,1480.411884,10878.556072
69629.694361,2738.761985,-962.267725,8963.317327
69629.694672,-1554.432478,-3478.967927,7890.783629
69629.694983,-814.226536,-2368.659014,10572.117872
69629.695294,814.226536,3182.885551,12257.527968
69629.695605,444.123565,4145.153275,8580.269578
69629.695917,-814.226536,2072.576638,10418.898773
69629.696228,-1110.308913,-1332.370696,10035.851024
69629.696539,-1924.535449,-296.082377,9882.631924
69629.696850,-3108.864956,666.185348,11338.213370
69629.697161,592.164754,1554.432478,12104.308868
69629.697472,518.144159,2220.617826,8733.488677
69629.697783,1406.391290,370.102971,7354.516781
69629.698094,2664.741391,74.020594,10112.460574
69629.698405,-1480.411884,-1110.308913,10035.851024
69629.698716,-4219.173869,-1480.411884,10955.165621
69629.699027,-370.102971,1554.432478,11797.870669
69629.699338,-592.164754,3478.967927,10648.727422
69629.699649,-3330.926739,1998.556043,10342.289223
69629.699960,-1110.308913,888.247130,11644.651570
69629.700271,-1480.411884,-518.144159,9652.803275
69629.700582,-1258.350101,592.164754,9499.584175
