#time,accel_x,accel_y,accel_z
69857.322739,-296.082377,-222.061783,10495.508323
69857.323050,0.000000,-74.020594,10648.727422
69857.323361,148.041188,0.000000,9576.193725
69857.323672,518.144159,74.020594,9882.631924
69857.323983,0.000000,148.041188,9959.241474
69857.324294,0.000000,370.102971,10189.070123
69857.324605,0.000000,-222.061783,10342.289223
69857.324916,222.061783,74.020594,10035.851024
69857.325227,444.123565,296.082377,10189.070123
69857.325538,0.000000,222.061783,10189.070123
69857.325849,-148.041188,-222.061783,10955.165621
69857.326160,0.000000,0.000000,10572.117872
69857.326471,0.000000,0.000000,10342.289223
69857.326782,0.000000,0.000000,10112.460574
69857.327093,74.020594,222.061783,10418.898773
69857.327404,0.000000,0.000000,10495.508323
69857.327715,0.000000,-296.082377,10112.460574
69857.328026,518.144159,0.000000,10035.851024
69857.328337,74.020594,0.000000,10035.851024
69857.328648,74.020594,0.000000,10265.679673
69857.328959,222.061783,0.000000,10189.070123
69857.329270,222.061783,0.000000,10189.070123
69857.329581,0.000000,-148.041188,10189.070123
69857.329892,0.000000,0.000000,10189.070123
69857.330203,222.061783,-370.102971,11184.994271
69857.330514,-592.164754,-222.061783,10955.165621
69857.330825,0.000000,0.000000,10035.851024
69857.331136,222.061783,0.000000,10265.679673
69857.331447,148.041188,0.000000,9729.412825
69857.331758,0.000000,0.000000,10418.898773
69857.332069,0.000000,0.000000,10035.851024
69857.332380,0.000000,0.000000,10112.460574
69857.332691,296.082377,0.000000,10265.679673
69857.333002,444.123565,-74.020594,10418.898773
69857.333313,-666.185348,0.000000,11108.384721
69857.333624,222.061783,-74.020594,10418.898773
69857.333935,74.020594,222.061783,10418.898773
69857.334246,0.000000,296.082377,10572.117872
69857.334557,-370.102971,0.000000,10495.508323
69857.334868,-296.082377,0.000000,10418.898773
69857.335179,0.000000,0.000000,10342.289223
69857.335490,74.020594,0.000000,10265.679673
69857.335801,-370.102971,222.061783,10342.289223
69857.336112,-74.020594,74.020594,10342.289223
69857.336423,-148.041188,-296.082377,10725.336972
69857.336734,222.061783,74.020594,9806.022374
69857.337045,296.082377,0.000000,10035.851024
69857.337356,0.000000,0.000000,10189.070123
69857.337667,-296.082377,0.000000,10418.898773
69857.337978,0.000000,296.082377,10572.117872
69857.338289,0.000000,74.020594,10342.289223
69857.338600,-148.041188,0.000000,10418.898773
69857.338911,0.000000,-148.041188,10112.460574
69857.339222,592.164754,74.020594,10725.336972
69857.339533,-296.082377,222.061783,10725.336972
69857.339844,444.123565,74.020594,10342.289223
69857.340155,74.020594,-370.102971,10418.898773
69857.340466,0.000000,0.000000,10342.289223
69857.340777,518.144159,0.000000,10035.851024
69857.341088,222.061783,0.000000,10189.070123
69857.341399,-148.041188,0.000000,10725.336972
69857.341710,-296.082377,222.061783,10572.117872
69857.342021,0.000000,814.226536,10725.336972
69857.342332,-592.164754,-148.041188,10035.851024
69857.342643,0.000000,0.000000,10265.679673
69857.342954,222.061783,74.020594,10189.070123
69857.343265,148.041188,0.000000,10572.117872
69857.343576,0.000000,0.000000,10265.679673
69857.343887,148.041188,0.000000,10112.460574
69857.344198,148.041188,74.020594,10572.117872
69857.344509,0.000000,0.000000,10342.289223
69857.344820,0.000000,74.020594,10342.289223
69857.345131,-296.082377,0.000000,10495.508323
69857.345442,0.000000,0.000000,10265.679673
69857.345753,222.061783,296.082377,9806.022374
69857.346064,148.041188,148.041188,9422.974625
69857.346375,0.000000,-296.082377,10342.289223
69857.346686,148.041188,222.061783,10495.508323
69857.346997,370.102971,74.020594,10189.070123
69857.347309,148.041188,-296.082377,10265.679673
69857.347620,0.000000,-370.102971,10342.289223
69857.347931,148.041188,222.061783,10418.898773
69857.348242,0.000000,148.041188,10495.508323
69857.348553,-74.020594,0.000000,9576.193725
69857.348864,-296.082377,-370.102971,10418.898773
69857.349175,-444.123565,0.000000,10725.336972
69857.349486,-222.061783,148.041188,10342.289223
69857.349797,370.102971,0.000000,10035.851024
69857.350108,0.000000,0.000000,10342.289223
69857.350419,296.082377,0.000000,10265.679673
69857.350730,296.082377,0.000000,10342.289223
69857.351041,74.020594,-222.061783,10342.289223
69857.351352,222.061783,-444.123565,11108.384721
69857.351663,-296.082377,-148.041188,10418.898773
69857.351974,-666.185348,0.000000,10648.727422
69857.352285,-74.020594,222.061783,10265.679673
69857.352596,0.000000,-296.082377,10495.508323
69857.352907,74.020594,0.000000,10035.851024
69857.353218,148.041188,0.000000,10265.679673
69857.353529,0.000000,0.000000,10342.289223
69857.353840,0.000000,0.000000,10342.289223
69857.354151,444.123565,370.102971,10648.727422
69857.354462,222.061783,0.000000,10342.289223
69857.354773,0.000000,-148.041188,10265.679673
69857.355084,444.123565,222.061783,10725.336972
69857.355395,74.020594,222.061783,10342.289223
69857.355706,0.000000,0.000000,10418.898773
69857.356017,0.000000,-370.102971,10418.898773
69857.356328,0.000000,0.000000,10189.070123
69857.356639,74.020594,222.061783,10189.070123
69857.356950,0.000000,74.020594,10648.727422
69857.357261,-666.185348,-296.082377,10418.898773
69857.357572,0.000000,296.082377,9882.631924
69857.357883,740.205942,222.061783,10418.898773
69857.358194,0.000000,0.000000,9959.241474
69857.358505,0.000000,0.000000,10189.070123
69857.358816,148.041188,148.041188,10189.070123
69857.359127,0.000000,148.041188,10265.679673
69857.359438,0.000000,0.000000,10342.289223
69857.359749,-222.061783,-222.061783,10725.336972
69857.360060,74.020594,0.000000,10418.898773
69857.360371,0.000000,0.000000,10572.117872
69857.360682,0.000000,0.000000,10418.898773
69857.360993,0.000000,-222.061783,10265.679673
69857.361304,0.000000,0.000000,10189.070123
69857.361615,592.164754,-74.020594,10112.460574
69857.361926,0.000000,0.000000,10112.460574
69857.362237,0.000000,-444.123565,10265.679673
69857.362548,0.000000,296.082377,10342.289223
69857.362859,0.000000,148.041188,10035.851024
69857.363170,-222.061783,-296.082377,10342.289223
69857.363481,0.000000,-222.061783,10265.679673
69857.363792,148.041188,148.041188,10495.508323
69857.364103,0.000000,74.020594,10265.679673
69857.364414,-148.041188,0.000000,9882.631924
69857.364725,-444.123565,0.000000,10035.851024
69857.365036,-74.020594,148.041188,10725.336972
69857.365347,74.020594,74.020594,10342.289223
69857.365658,0.000000,0.000000,10035.851024
69857.365969,0.000000,0.000000,10418.898773
69857.366280,222.061783,370.102971,10265.679673
69857.366591,74.020594,74.020594,10265.679673
69857.366902,-296.082377,-148.041188,10189.070123
69857.367213,666.185348,-814.226536,11491.432470
69857.367524,0.000000,222.061783,10342.289223
69857.367835,222.061783,0.000000,10725.336972
69857.368146,0.000000,0.000000,10265.679673
69857.368457,518.144159,0.000000,9806.022374
69857.368768,296.082377,74.020594,10342.289223
69857.369079,148.041188,0.000000,10342.289223
69857.369390,-148.041188,-296.082377,10342.289223
69857.369701,0.000000,-296.082377,10265.679673
69857.370012,518.144159,222.061783,10035.851024
69857.370323,0.000000,222.061783,9806.022374
69857.370634,-222.061783,148.041188,10418.898773
69857.370945,222.061783,0.000000,10495.508323
69857.371256,370.102971,0.000000,10189.070123
69857.371567,222.061783,0.000000,10265.679673
69857.371878,0.000000,-296.082377,10265.679673
69857.372189,0.000000,148.041188,10265.679673
69857.372500,370.102971,74.020594,10572.117872
69857.372811,-370.102971,222.061783,10572.117872
69857.373122,0.000000,-666.185348,10572.117872
69857.373433,592.164754,-370.102971,10725.336972
69857.373744,-296.082377,444.123565,10035.851024
69857.374055,74.020594,-222.061783,10418.898773
69857.374366,0.000000,-370.102971,10112.460574
69857.374677,0.000000,0.000000,10189.070123
69857.374988,296.082377,148.041188,10112.460574
69857.375299,370.102971,0.000000,10265.679673
69857.375610,-222.061783,-222.061783,10265.679673
69857.375921,148.041188,-148.041188,10112.460574
69857.376232,148.041188,148.041188,10189.070123
69857.376543,0.000000,0.000000,10418.898773
69857.376854,74.020594,-148.041188,10342.289223
69857.377165,0.000000,-370.102971,10265.679673
69857.377476,0.000000,-74.020594,10035.851024
69857.377787,444.123565,74.020594,9882.631924
69857.378098,0.000000,-296.082377,10342.289223
69857.378409,370.102971,74.020594,9882.631924
69857.378720,370.102971,74.020594,10112.460574
69857.379032,0.000000,-222.061783,10495.508323
69857.379343,0.000000,0.000000,10265.679673
69857.379654,148.041188,0.000000,10189.070123
69857.379965,296.082377,0.000000,9576.193725
69857.380276,74.020594,0.000000,10342.289223
69857.380587,0.000000,-222.061783,10265.679673
69857.380898,74.020594,-222.061783,10648.727422
69857.381209,666.185348,0.000000,9652.803275
69857.381521,0.000000,-222.061783,10265.679673
69857.381832,-148.041188,0.000000,10342.289223
69857.382143,296.082377,-74.020594,9959.241474
69857.382454,74.020594,0.000000,11031.775171
69857.382765,370.102971,-370.102971,10342.289223
69857.383076,-296.082377,74.020594,10189.070123
69857.383387,-666.185348,-518.144159,10342.289223
69857.383698,0.000000,0.000000,10418.898773
69857.384010,74.020594,592.164754,10418.898773
69857.384321,74.020594,0.000000,10112.460574
69857.384632,0.000000,-222.061783,10265.679673
69857.384943,0.000000,0.000000,10342.289223
69857.385254,0.000000,0.000000,10342.289223
69857.385565,148.041188,0.000000,10112.460574
69857.385876,-666.185348,74.020594,9806.022374
69857.386187,0.000000,-370.102971,10648.727422
69857.386499,74.020594,-222.061783,10495.508323
69857.386810,0.000000,0.000000,10418.898773
69857.387121,74.020594,0.000000,10189.070123
69857.387432,740.205942,0.000000,10112.460574
69857.387743,0.000000,-222.061783,10725.336972
69857.388054,74.020594,222.061783,10035.851024
69857.388365,370.102971,0.000000,10418.898773
69857.388676,74.020594,0.000000,9806.022374
69857.388988,-592.164754,0.000000,10035.851024
69857.389299,-592.164754,0.000000,10342.289223
69857.389610,-148.041188,-148.041188,10495.508323
69857.389921,0.000000,0.000000,10265.679673
69857.390232,370.102971,74.020594,9576.193725
69857.390543,0.000000,0.000000,10035.851024
69857.390854,74.020594,0.000000,10189.070123
69857.391166,74.020594,0.000000,10189.070123
69857.391477,0.000000,-222.061783,10495.508323
69857.391788,0.000000,74.020594,10725.336972
69857.392099,-222.061783,-148.041188,10418.898773
69857.392410,74.020594,-148.041188,9959.241474
69857.392721,0.000000,0.000000,10495.508323
69857.393032,0.000000,444.123565,10495.508323
69857.393343,0.000000,0.000000,10342.289223
69857.393655,0.000000,0.000000,10035.851024
69857.393966,0.000000,0.000000,10495.508323
69857.394277,222.061783,0.000000,10265.679673
69857.394588,222.061783,296.082377,10189.070123
69857.394899,518.144159,222.061783,10572.117872
69857.395210,74.020594,-296.082377,10342.289223
69857.395521,370.102971,0.000000,10035.851024
69857.395832,222.061783,148.041188,10189.070123
69857.396144,0.000000,148.041188,10648.727422
69857.396455,0.000000,-148.041188,10495.508323
69857.396766,0.000000,296.082377,10418.898773
69857.397077,0.000000,-148.041188,10265.679673
69857.397388,-296.082377,-444.123565,10035.851024
69857.397699,0.000000,148.041188,10189.070123
69857.398010,444.123565,74.020594,10189.070123
69857.398321,0.000000,148.041188,10189.070123
69857.398633,148.041188,0.000000,10189.070123
69857.398944,0.000000,0.000000,10648.727422
69857.399255,-148.041188,518.144159,10342.289223
69857.399566,-296.082377,0.000000,10035.851024
69857.399877,-148.041188,0.000000,10265.679673
69857.400188,-592.164754,370.102971,10495.508323
69857.400499,74.020594,222.061783,10572.117872
69857.400810,74.020594,-148.041188,10265.679673
69857.401122,0.000000,-370.102971,10265.679673
69857.401433,0.000000,148.041188,10572.117872
69857.401744,222.061783,222.061783,10725.336972
69857.402055,0.000000,0.000000,10035.851024
69857.402366,0.000000,0.000000,10189.070123
69857.402677,74.020594,0.000000,9959.241474
69857.402988,888.247130,222.061783,10265.679673
69857.403299,0.000000,0.000000,10495.508323
69857.403611,0.000000,0.000000,10342.289223
69857.403922,0.000000,0.000000,10418.898773
69857.404233,0.000000,74.020594,10035.851024
69857.404544,0.000000,148.041188,10342.289223
69857.404855,74.020594,-296.082377,10648.727422
69857.405166,222.061783,-148.041188,11338.213370
69857.405477,370.102971,148.041188,10572.117872
69857.405789,148.041188,148.041188,10495.508323
69857.406100,0.000000,0.000000,10112.460574
69857.406411,222.061783,74.020594,10342.289223
69857.406722,222.061783,444.123565,10265.679673
69857.407033,0.000000,0.000000,10265.679673
69857.407344,592.164754,-222.061783,10725.336972
69857.407655,74.020594,-592.164754,10265.679673
69857.407966,-148.041188,518.144159,10265.679673
69857.408278,222.061783,0.000000,10035.851024
69857.408589,148.041188,-222.061783,10648.727422
69857.408900,0.000000,0.000000,10495.508323
69857.409211,0.000000,74.020594,10495.508323
69857.409522,148.041188,0.000000,10342.289223
69857.409833,148.041188,-148.041188,10035.851024
69857.410144,296.082377,74.020594,9269.755526
69857.410455,0.000000,222.061783,10725.336972
69857.410767,-74.020594,296.082377,10112.460574
69857.411078,0.000000,-222.061783,10265.679673
69857.411389,148.041188,0.000000,10495.508323
69857.411700,592.164754,0.000000,10342.289223
69857.412011,0.000000,148.041188,10725.336972
69857.412322,0.000000,0.000000,10418.898773
69857.412633,74.020594,-296.082377,10342.289223
69857.412944,148.041188,444.123565,9652.803275
69857.413256,74.020594,296.082377,10342.289223
69857.413567,-148.041188,-148.041188,10495.508323
69857.413878,-148.041188,-370.102971,10572.117872
69857.414189,222.061783,0.000000,10189.070123
69857.414500,0.000000,592.164754,9806.022374
69857.414811,-370.102971,666.185348,9959.241474
69857.415122,370.102971,-370.102971,10725.336972
69857.415433,0.000000,-222.061783,10265.679673
69857.415745,148.041188,888.247130,9729.412825
69857.416056,444.123565,0.000000,10035.851024
69857.416367,0.000000,-518.144159,10418.898773
69857.416678,0.000000,-222.061783,10418.898773
69857.416989,296.082377,148.041188,10495.508323
69857.417300,0.000000,222.061783,10035.851024
69857.417611,0.000000,-370.102971,10725.336972
69857.417922,0.000000,-148.041188,10648.727422
69857.418234,296.082377,444.123565,10495.508323
69857.418545,0.000000,222.061783,10725.336972
69857.418856,-222.061783,-296.082377,10418.898773
69857.419167,0.000000,0.000000,10648.727422
69857.419478,74.020594,222.061783,10265.679673
69857.419789,148.041188,148.041188,10112.460574
69857.420100,74.020594,0.000000,10572.117872
69857.420411,148.041188,-370.102971,10112.460574
69857.420723,444.123565,592.164754,10189.070123
69857.421034,74.020594,74.020594,10342.289223
69857.421345,0.000000,0.000000,10265.679673
69857.421656,74.020594,0.000000,10572.117872
69857.421967,0.000000,0.000000,10418.898773
69857.422278,0.000000,0.000000,10189.070123
69857.422589,0.000000,0.000000,10801.946522
69857.422901,0.000000,148.041188,10495.508323
69857.423212,0.000000,148.041188,11108.384721
69857.423523,-222.061783,74.020594,10112.460574
69857.423834,-370.102971,0.000000,9959.241474
69857.424145,148.041188,0.000000,10189.070123
69857.424456,296.082377,222.061783,10035.851024
69857.424767,0.000000,-148.041188,10112.460574
69857.425078,0.000000,0.000000,10342.289223
69857.425390,0.000000,74.020594,10418.898773
69857.425701,148.041188,444.123565,10495.508323
69857.426012,0.000000,0.000000,10265.679673
69857.426323,444.123565,-666.185348,11414.822920
69857.426634,-666.185348,0.000000,10342.289223
69857.426945,222.061783,296.082377,10418.898773
69857.427256,0.000000,148.041188,10265.679673
69857.427567,-148.041188,0.000000,10342.289223
69857.427879,0.000000,0.000000,10265.679673
69857.428190,222.061783,148.041188,10189.070123
69857.428501,222.061783,0.000000,10189.070123
69857.428812,74.020594,-296.082377,10495.508323
69857.429123,0.000000,296.082377,10648.727422
69857.429434,0.000000,74.020594,10035.851024
69857.429745,0.000000,0.000000,10112.460574
69857.430056,0.000000,74.020594,10112.460574
69857.430368,0.000000,74.020594,10265.679673
69857.430679,0.000000,74.020594,10878.556072
69857.430990,-222.061783,0.000000,10648.727422
69857.431301,0.000000,-296.082377,10035.851024
69857.431612,74.020594,0.000000,9959.241474
69857.431923,370.102971,148.041188,10265.679673
69857.432234,74.020594,-222.061783,10418.898773
69857.432545,-148.041188,-222.061783,10342.289223
69857.432857,296.082377,814.226536,9882.631924
69857.433168,-74.020594,592.164754,9806.022374
69857.433479,0.000000,-222.061783,10035.851024
69857.433790,0.000000,-370.102971,10112.460574
69857.434101,0.000000,-222.061783,10342.289223
69857.434412,148.041188,0.000000,10189.070123
69857.434723,0.000000,0.000000,10035.851024
69857.435034,0.000000,-296.082377,10418.898773
69857.435346,-148.041188,74.020594,10648.727422
69857.435657,592.164754,74.020594,10418.898773
69857.435968,148.041188,148.041188,10342.289223
69857.436279,0.000000,0.000000,9882.631924
69857.436590,-74.020594,444.123565,10418.898773
69857.436901,0.000000,0.000000,10189.070123
69857.437212,0.000000,296.082377,10112.460574
69857.437524,74.020594,0.000000,10189.070123
69857.437835,0.000000,74.020594,10112.460574
69857.438146,0.000000,0.000000,10342.289223
69857.438457,74.020594,-296.082377,10572.117872
69857.438768,222.061783,296.082377,10189.070123
69857.439079,370.102971,0.000000,10112.460574
69857.439390,592.164754,0.000000,10648.727422
69857.439701,0.000000,-148.041188,10418.898773
69857.440013,0.000000,740.205942,10418.898773
69857.440324,222.061783,74.020594,10112.460574
69857.440635,296.082377,0.000000,10418.898773
69857.440946,0.000000,0.000000,10495.508323
69857.441257,0.000000,0.000000,10648.727422
69857.441568,296.082377,222.061783,10112.460574
69857.441879,-296.082377,-296.082377,10189.070123
69857.442190,0.000000,-74.020594,10112.460574
69857.442502,74.020594,74.020594,10265.679673
69857.442813,-222.061783,148.041188,10342.289223
69857.443124,0.000000,0.000000,10342.289223
69857.443435,296.082377,0.000000,10342.289223
69857.443746,296.082377,0.000000,10418.898773
69857.444057,0.000000,74.020594,10418.898773
69857.444368,74.020594,0.000000,10112.460574
69857.444679,-222.061783,-74.020594,11261.603821
69857.444991,-592.164754,370.102971,10418.898773
69857.445302,74.020594,74.020594,10112.460574
69857.445613,-222.061783,-296.082377,11108.384721
69857.445924,-222.061783,0.000000,10418.898773
69857.446235,296.082377,444.123565,10189.070123
69857.446546,370.102971,148.041188,10112.460574
69857.446857,0.000000,-296.082377,10265.679673
69857.447168,74.020594,-148.041188,9806.022374
69857.447480,74.020594,0.000000,10265.679673
69857.447791,0.000000,0.000000,10495.508323
69857.448102,148.041188,0.000000,10495.508323
69857.448413,148.041188,0.000000,10878.556072
69857.448724,222.061783,296.082377,10189.070123
69857.449035,-296.082377,0.000000,10725.336972
69857.449346,-148.041188,-518.144159,10189.070123
69857.449657,0.000000,0.000000,10495.508323
69857.449969,370.102971,296.082377,10342.289223
69857.450280,0.000000,0.000000,10342.289223
69857.450591,74.020594,0.000000,10189.070123
69857.450902,0.000000,0.000000,10342.289223
69857.451213,74.020594,0.000000,10342.289223
69857.451524,592.164754,-148.041188,9806.022374
69857.451835,-74.020594,222.061783,10418.898773
69857.452146,296.082377,-222.061783,10342.289223
69857.452458,296.082377,74.020594,10265.679673
69857.452769,-222.061783,0.000000,10342.289223
69857.453080,74.020594,74.020594,10495.508323
69857.453391,0.000000,0.000000,10189.070123
69857.453702,-370.102971,0.000000,10495.508323
69857.454013,148.041188,0.000000,10265.679673
69857.454324,518.144159,-148.041188,10035.851024
69857.454636,222.061783,0.000000,9959.241474
69857.454947,1036.288319,74.020594,10265.679673
69857.455258,-148.041188,0.000000,10265.679673
69857.455569,-222.061783,0.000000,10801.946522
69857.455880,148.041188,296.082377,10112.460574
69857.456191,148.041188,0.000000,10342.289223
69857.456502,-444.123565,-148.041188,10648.727422
69857.456813,0.000000,-222.061783,10189.070123
69857.457125,0.000000,-592.164754,11108.384721
69857.457436,222.061783,0.000000,10342.289223
69857.457747,74.020594,0.000000,10189.070123
69857.458058,148.041188,0.000000,10112.460574
69857.458369,148.041188,74.020594,10725.336972
69857.458680,222.061783,222.061783,10112.460574
69857.458991,222.061783,0.000000,10112.460574
69857.459302,0.000000,0.000000,10342.289223
69857.459614,0.000000,0.000000,10648.727422
69857.459925,-222.061783,740.205942,10418.898773
69857.460236,0.000000,74.020594,10112.460574
69857.460547,-296.082377,-592.164754,10572.117872
69857.460858,-518.144159,0.000000,9729.412825
69857.461169,370.102971,148.041188,10035.851024
69857.461480,0.000000,0.000000,10265.679673
69857.461791,0.000000,0.000000,10342.289223
69857.462103,518.144159,296.082377,10495.508323
69857.462414,74.020594,0.000000,10189.070123
69857.462725,-222.061783,222.061783,10572.117872
69857.463036,0.000000,0.000000,10112.460574
69857.463347,0.000000,0.000000,10495.508323
69857.463658,0.000000,0.000000,10342.289223
69857.463969,-148.041188,0.000000,10189.070123
69857.464280,-888.247130,0.000000,10955.165621
69857.464592,222.061783,-296.082377,10725.336972
69857.464903,0.000000,0.000000,10112.460574
69857.465214,-74.020594,-222.061783,10418.898773
69857.465525,-296.082377,74.020594,10572.117872
69857.465836,518.144159,0.000000,10265.679673
69857.466147,74.020594,0.000000,10725.336972
69857.466458,0.000000,0.000000,10189.070123
69857.466769,74.020594,0.000000,10265.679673
69857.467081,-148.041188,370.102971,10955.165621
69857.467392,74.020594,222.061783,10035.851024
69857.467703,74.020594,222.061783,10189.070123
69857.468014,74.020594,0.000000,10342.289223
69857.468325,74.020594,222.061783,10265.679673
69857.468636,0.000000,0.000000,10418.898773
69857.468947,0.000000,0.000000,10418.898773
69857.469259,222.061783,0.000000,10342.289223
69857.469570,148.041188,0.000000,10342.289223
69857.469881,0.000000,592.164754,10342.289223
69857.470192,74.020594,0.000000,10418.898773
69857.470503,-370.102971,0.000000,9806.022374
69857.470814,148.041188,148.041188,10035.851024
69857.471125,148.041188,-148.041188,10495.508323
69857.471436,0.000000,-148.041188,10189.070123
69857.471748,0.000000,0.000000,10265.679673
69857.472059,0.000000,0.000000,10495.508323
69857.472370,0.000000,0.000000,10265.679673
69857.472681,370.102971,74.020594,10342.289223
69857.472992,148.041188,148.041188,9882.631924
69857.473303,74.020594,296.082377,10035.851024
69857.473614,0.000000,592.164754,10189.070123
69857.473925,0.000000,74.020594,10342.289223
69857.474237,222.061783,0.000000,10189.070123
69857.474548,74.020594,-148.041188,10265.679673
69857.474859,0.000000,0.000000,10495.508323
69857.475170,148.041188,148.041188,10342.289223
69857.475481,0.000000,296.082377,10418.898773
69857.475792,74.020594,-74.020594,10572.117872
69857.476103,-444.123565,0.000000,10112.460574
69857.476414,222.061783,0.000000,10342.289223
69857.476726,0.000000,0.000000,10418.898773
69857.477037,-370.102971,0.000000,10112.460574
69857.477348,-148.041188,0.000000,10418.898773
69857.477659,0.000000,148.041188,10418.898773
69857.477970,74.020594,74.020594,10112.460574
69857.478281,0.000000,0.000000,10265.679673
69857.478592,-222.061783,-222.061783,10495.508323
69857.478903,148.041188,0.000000,10495.508323
69857.479215,-148.041188,74.020594,10035.851024
69857.479526,-222.061783,0.000000,10265.679673
69857.479837,0.000000,0.000000,10648.727422
69857.480148,0.000000,0.000000,10112.460574
69857.480459,0.000000,0.000000,10189.070123
69857.480770,0.000000,-148.041188,10112.460574
69857.481081,-148.041188,-148.041188,10189.070123
69857.481393,0.000000,148.041188,10495.508323
69857.481704,74.020594,0.000000,10189.070123
69857.482015,0.000000,0.000000,10265.679673
69857.482326,0.000000,0.000000,10418.898773
69857.482637,222.061783,148.041188,11108.384721
69857.482948,296.082377,444.123565,10495.508323
69857.483259,222.061783,-296.082377,10265.679673
69857.483571,-74.020594,74.020594,9806.022374
69857.483882,296.082377,-148.041188,10265.679673
69857.484193,0.000000,0.000000,10495.508323
69857.484504,-222.061783,-148.041188,10418.898773
69857.484815,0.000000,0.000000,10265.679673
69857.485126,222.061783,-148.041188,10265.679673
69857.485437,74.020594,0.000000,10342.289223
69857.485749,-296.082377,-592.164754,10725.336972
69857.486060,222.061783,222.061783,10648.727422
69857.486371,0.000000,0.000000,10725.336972
69857.486682,0.000000,74.020594,9959.241474
69857.486993,0.000000,0.000000,10572.117872
69857.487304,0.000000,0.000000,10418.898773
69857.487615,0.000000,74.020594,10495.508323
69857.487927,370.102971,-296.082377,10265.679673
69857.488238,74.020594,0.000000,10572.117872
69857.488549,-296.082377,-592.164754,11031.775171
69857.488860,0.000000,888.247130,10801.946522
69857.489171,0.000000,0.000000,10112.460574
69857.489482,74.020594,-296.082377,10035.851024
69857.489794,148.041188,-222.061783,10035.851024
69857.490105,0.000000,0.000000,10495.508323
69857.490416,0.000000,148.041188,10572.117872
69857.490727,0.000000,74.020594,10265.679673
69857.491038,74.020594,-148.041188,10265.679673
69857.491349,-74.020594,74.020594,10112.460574
69857.491660,0.000000,-222.061783,10189.070123
69857.491972,74.020594,0.000000,10418.898773
69857.492283,-296.082377,0.000000,10418.898773
69857.492594,296.082377,0.000000,9959.241474
69857.492905,74.020594,0.000000,10265.679673
69857.493216,0.000000,222.061783,10112.460574
69857.493527,74.020594,0.000000,10342.289223
69857.493838,0.000000,0.000000,10035.851024
69857.494150,296.082377,-222.061783,10035.851024
69857.494461,74.020594,296.082377,9576.193725
69857.494772,222.061783,0.000000,10418.898773
69857.495083,0.000000,-148.041188,10418.898773
69857.495394,296.082377,222.061783,9882.631924
69857.495705,0.000000,-222.061783,10189.070123
69857.496016,-222.061783,-296.082377,10495.508323
69857.496328,74.020594,0.000000,10265.679673
69857.496639,0.000000,0.000000,10189.070123
69857.496950,0.000000,148.041188,10265.679673
69857.497261,74.020594,0.000000,10112.460574
69857.497572,0.000000,-148.041188,10265.679673
69857.497883,0.000000,0.000000,10342.289223
69857.498195,222.061783,148.041188,10418.898773
69857.498506,0.000000,0.000000,10495.508323
69857.498817,296.082377,-74.020594,10035.851024
69857.499128,518.144159,592.164754,10265.679673
69857.499439,0.000000,0.000000,10648.727422
69857.499750,-296.082377,-370.102971,10725.336972
69857.500061,370.102971,74.020594,10189.070123
69857.500373,0.000000,0.000000,10265.679673
69857.500684,-148.041188,-222.061783,10648.727422
69857.500995,0.000000,0.000000,10418.898773
69857.501306,296.082377,-148.041188,10112.460574
69857.501617,0.000000,74.020594,10648.727422
69857.501928,-148.041188,444.123565,10342.289223
69857.502239,74.020594,74.020594,10342.289223
69857.502551,222.061783,0.000000,10572.117872
69857.502862,0.000000,0.000000,10342.289223
69857.503173,0.000000,222.061783,10342.289223
69857.503484,0.000000,0.000000,10112.460574
69857.503795,0.000000,74.020594,10418.898773
69857.504106,74.020594,-592.164754,10725.336972
69857.504417,148.041188,-296.082377,10342.289223
69857.504729,0.000000,-148.041188,10418.898773
69857.505040,148.041188,592.164754,10112.460574
69857.505351,222.061783,0.000000,9959.241474
69857.505662,0.000000,0.000000,10189.070123
69857.505973,148.041188,0.000000,10189.070123
69857.506284,148.041188,0.000000,10342.289223
69857.506595,148.041188,0.000000,10418.898773
69857.506907,666.185348,-148.041188,9652.803275
69857.507218,-666.185348,444.123565,10035.851024
69857.507529,0.000000,-296.082377,9806.022374
69857.507840,148.041188,148.041188,10495.508323
69857.508151,74.020594,0.000000,10112.460574
69857.508462,0.000000,0.000000,10112.460574
69857.508774,222.061783,74.020594,10342.289223
69857.509085,0.000000,0.000000,10342.289223
69857.509396,0.000000,-148.041188,10418.898773
69857.509707,148.041188,74.020594,10648.727422
69857.510018,666.185348,-148.041188,9806.022374
69857.510329,444.123565,0.000000,10035.851024
69857.510640,0.000000,74.020594,10265.679673
69857.510952,0.000000,0.000000,10495.508323
69857.511263,0.000000,0.000000,10189.070123
69857.511574,0.000000,0.000000,10189.070123
69857.511885,-222.061783,-222.061783,10189.070123
69857.512196,74.020594,0.000000,10418.898773
69857.512507,592.164754,0.000000,10572.117872
69857.512818,222.061783,0.000000,10342.289223
69857.513130,74.020594,0.000000,10189.070123
69857.513441,74.020594,0.000000,10189.070123
69857.513752,148.041188,0.000000,10265.679673
69857.514063,518.144159,-962.267725,10648.727422
69857.514374,370.102971,-74.020594,10572.117872
69857.514685,74.020594,0.000000,10418.898773
69857.514996,0.000000,0.000000,10418.898773
69857.515308,0.000000,0.000000,10725.336972
69857.515619,0.000000,-222.061783,10495.508323
69857.515930,222.061783,0.000000,10189.070123
69857.516241,0.000000,148.041188,10342.289223
69857.516552,296.082377,-148.041188,10112.460574
69857.516863,444.123565,148.041188,10265.679673
69857.517175,296.082377,222.061783,10112.460574
69857.517486,222.061783,0.000000,9806.022374
69857.517797,-444.123565,0.000000,10189.070123
69857.518108,0.000000,-222.061783,9652.803275
69857.518419,74.020594,222.061783,10265.679673
69857.518730,0.000000,-148.041188,10189.070123
69857.519041,0.000000,0.000000,10572.117872
69857.519353,0.000000,0.000000,10342.289223
69857.519664,148.041188,296.082377,10418.898773
69857.519975,370.102971,296.082377,10112.460574
69857.520286,0.000000,0.000000,10878.556072
69857.520597,0.000000,0.000000,10342.289223
69857.520908,592.164754,0.000000,10112.460574
69857.521219,370.102971,-148.041188,10035.851024
69857.521531,-222.061783,-148.041188,10342.289223
69857.521842,0.000000,74.020594,10265.679673
69857.522153,0.000000,148.041188,10572.117872
69857.522464,370.102971,0.000000,10878.556072
69857.522775,-148.041188,-518.144159,10955.165621
69857.523086,-296.082377,0.000000,10418.898773
69857.523397,222.061783,-296.082377,10725.336972
69857.523709,222.061783,0.000000,10189.070123
69857.524020,148.041188,-222.061783,10189.070123
69857.524331,148.041188,0.000000,9959.241474
69857.524642,296.082377,148.041188,10112.460574
69857.524953,74.020594,0.000000,10189.070123
69857.525264,370.102971,-222.061783,10035.851024
69857.525576,222.061783,148.041188,9806.022374
69857.525887,-444.123565,222.061783,10418.898773
69857.526198,518.144159,0.000000,10648.727422
69857.526509,-148.041188,-148.041188,10265.679673
69857.526820,148.041188,296.082377,10112.460574
69857.527131,148.041188,148.041188,10342.289223
69857.527442,0.000000,-148.041188,10265.679673
69857.527754,0.000000,0.000000,10572.117872
69857.528065,296.082377,222.061783,9652.803275
69857.528376,0.000000,74.020594,10342.289223
69857.528687,0.000000,444.123565,10725.336972
69857.528998,74.020594,148.041188,10418.898773
69857.529309,0.000000,0.000000,10495.508323
69857.529620,148.041188,222.061783,10035.851024
69857.529932,148.041188,0.000000,10189.070123
69857.530243,0.000000,-222.061783,10418.898773
69857.530554,74.020594,-148.041188,10265.679673
69857.530865,0.000000,0.000000,10418.898773
69857.531176,0.000000,74.020594,10265.679673
69857.531487,0.000000,0.000000,10265.679673
69857.531798,0.000000,0.000000,10112.460574
69857.532110,74.020594,0.000000,10265.679673
69857.532421,74.020594,444.123565,10342.289223
69857.532732,74.020594,74.020594,10418.898773
69857.533043,0.000000,74.020594,9806.022374
69857.533354,148.041188,74.020594,10035.851024
69857.533665,-148.041188,0.000000,10648.727422
69857.533977,0.000000,-296.082377,10265.679673
69857.534288,148.041188,74.020594,10265.679673
69857.534599,0.000000,0.000000,10189.070123
69857.534910,74.020594,0.000000,10418.898773
69857.535221,0.000000,0.000000,10725.336972
69857.535532,-296.082377,370.102971,10342.289223
69857.535843,74.020594,370.102971,10112.460574
69857.536155,74.020594,-222.061783,10265.679673
69857.536466,-296.082377,-222.061783,10418.898773
69857.536777,0.000000,148.041188,10342.289223
69857.537088,148.041188,74.020594,10265.679673
69857.537399,-148.041188,-296.082377,10342.289223
69857.537710,0.000000,-222.061783,10418.898773
69857.538021,222.061783,222.061783,10035.851024
69857.538333,0.000000,74.020594,10189.070123
69857.538644,0.000000,0.000000,9729.412825
69857.538955,-148.041188,0.000000,9652.803275
69857.539266,0.000000,148.041188,10342.289223
69857.539577,370.102971,148.041188,9806.022374
69857.539888,74.020594,74.020594,10265.679673
69857.540199,-148.041188,0.000000,10418.898773
69857.540511,0.000000,0.000000,10265.679673
69857.540822,74.020594,74.020594,10572.117872
69857.541133,-74.020594,-74.020594,10342.289223
69857.541444,0.000000,0.000000,10572.117872
69857.541755,148.041188,148.041188,10418.898773
69857.542066,0.000000,0.000000,10112.460574
69857.542377,0.000000,74.020594,10189.070123
69857.542689,222.061783,74.020594,10265.679673
69857.543000,148.041188,0.000000,10418.898773
69857.543311,0.000000,-148.041188,10265.679673
69857.543622,0.000000,0.000000,10265.679673
69857.543933,-518.144159,222.061783,9806.022374
69857.544244,0.000000,222.061783,10801.946522
69857.544556,370.102971,-444.123565,10112.460574
69857.544867,0.000000,-370.102971,10342.289223
69857.545178,0.000000,74.020594,10725.336972
69857.545489,222.061783,0.000000,10112.460574
69857.545800,74.020594,0.000000,10265.679673
69857.546111,-148.041188,-148.041188,10418.898773
69857.546422,0.000000,74.020594,10265.679673
69857.546734,0.000000,148.041188,10418.898773
69857.547045,0.000000,-370.102971,10112.460574
69857.547356,0.000000,0.000000,10112.460574
69857.547667,148.041188,148.041188,10189.070123
69857.547978,222.061783,0.000000,10725.336972
69857.548289,296.082377,222.061783,10572.117872
69857.548600,296.082377,-296.082377,10418.898773
69857.548912,-222.061783,222.061783,10189.070123
69857.549223,222.061783,74.020594,10265.679673
69857.549534,296.082377,148.041188,9959.241474
69857.549845,0.000000,-148.041188,10418.898773
69857.550156,0.000000,-148.041188,10495.508323
69857.550467,148.041188,74.020594,10035.851024
69857.550778,74.020594,-222.061783,9882.631924
69857.551090,0.000000,-74.020594,9652.803275
69857.551401,0.000000,74.020594,10418.898773
69857.551712,74.020594,-74.020594,10112.460574
69857.552023,0.000000,0.000000,10342.289223
69857.552334,0.000000,0.000000,10035.851024
69857.552645,148.041188,222.061783,10189.070123
69857.552957,0.000000,74.020594,10495.508323
69857.553268,-148.041188,-222.061783,10418.898773
69857.553579,296.082377,0.000000,10342.289223
69857.553890,0.000000,0.000000,9806.022374
69857.554201,222.061783,74.020594,10035.851024
69857.554512,0.000000,0.000000,10418.898773
69857.554823,148.041188,-148.041188,10418.898773
69857.555135,222.061783,74.020594,10189.070123
69857.555446,222.061783,0.000000,10265.679673
69857.555757,0.000000,0.000000,10112.460574
69857.556068,0.000000,0.000000,10189.070123
69857.556379,222.061783,148.041188,10265.679673
69857.556690,0.000000,222.061783,9729.412825
69857.557001,0.000000,-666.185348,10878.556072
69857.557313,74.020594,444.123565,10572.117872
69857.557624,0.000000,222.061783,10418.898773
69857.557935,222.061783,-222.061783,10189.070123
69857.558246,222.061783,-296.082377,10265.679673
69857.558557,0.000000,0.000000,10265.679673
69857.558868,74.020594,0.000000,10342.289223
69857.559179,0.000000,0.000000,10189.070123
69857.559491,74.020594,-296.082377,10572.117872
69857.559802,-222.061783,148.041188,9959.241474
69857.560113,148.041188,-148.041188,10112.460574
69857.560424,222.061783,74.020594,10878.556072
69857.560735,74.020594,222.061783,10342.289223
69857.561046,0.000000,74.020594,10342.289223
69857.561358,0.000000,0.000000,10342.289223
69857.561669,74.020594,222.061783,10035.851024
69857.561980,0.000000,0.000000,10418.898773
69857.562291,-222.061783,222.061783,10495.508323
69857.562602,296.082377,0.000000,10342.289223
69857.562913,0.000000,0.000000,10189.070123
69857.563224,0.000000,0.000000,10342.289223
69857.563536,296.082377,0.000000,10035.851024
69857.563847,74.020594,74.020594,10112.460574
69857.564158,-74.020594,-74.020594,9729.412825
69857.564469,148.041188,0.000000,10418.898773
69857.564780,0.000000,0.000000,10189.070123
69857.565091,148.041188,0.000000,9806.022374
69857.565402,74.020594,148.041188,10572.117872
69857.565714,0.000000,74.020594,10418.898773
69857.566025,0.000000,-296.082377,10418.898773
69857.566336,0.000000,0.000000,10265.679673
69857.566647,74.020594,-296.082377,9959.241474
69857.566958,0.000000,-222.061783,10035.851024
69857.567269,74.020594,0.000000,10495.508323
69857.567580,0.000000,0.000000,10035.851024
69857.567892,0.000000,74.020594,10725.336972
69857.568203,222.061783,-148.041188,10342.289223
69857.568514,0.000000,148.041188,10495.508323
69857.568825,0.000000,0.000000,10495.508323
69857.569136,0.000000,148.041188,10418.898773
69857.569447,0.000000,148.041188,9882.631924
69857.569758,0.000000,-74.020594,10648.727422
69857.570070,370.102971,148.041188,10418.898773
69857.570381,370.102971,-222.061783,10648.727422
69857.570692,148.041188,222.061783,10189.070123
69857.571003,74.020594,0.000000,10035.851024
69857.571314,0.000000,-222.061783,10112.460574
69857.571625,0.000000,0.000000,10342.289223
69857.571937,0.000000,222.061783,10342.289223
69857.572248,0.000000,0.000000,10342.289223
69857.572559,0.000000,-296.082377,10495.508323
69857.572870,148.041188,0.000000,10572.117872
69857.573181,518.144159,-296.082377,10572.117872
69857.573492,148.041188,-222.061783,10035.851024
69857.573803,222.061783,148.041188,10189.070123
69857.574115,148.041188,296.082377,10342.289223
69857.574426,148.041188,296.082377,10342.289223
69857.574737,0.000000,-296.082377,10189.070123
69857.575048,0.000000,0.000000,10955.165621
69857.575359,222.061783,0.000000,10801.946522
69857.575670,0.000000,0.000000,10418.898773
69857.575981,74.020594,0.000000,10418.898773
69857.576293,0.000000,0.000000,10418.898773
69857.576604,148.041188,0.000000,10342.289223
69857.576915,370.102971,0.000000,9959.241474
69857.577226,222.061783,-148.041188,10265.679673
69857.577537,0.000000,0.000000,10418.898773
69857.577848,370.102971,0.000000,10418.898773
69857.578159,74.020594,0.000000,10342.289223
69857.578471,-296.082377,222.061783,10418.898773
69857.578782,222.061783,-444.123565,10648.727422
69857.579093,0.000000,296.082377,10572.117872
69857.579404,148.041188,222.061783,10342.289223
69857.579715,74.020594,-148.041188,10189.070123
69857.580026,0.000000,0.000000,10189.070123
69857.580338,148.041188,0.000000,10418.898773
69857.580649,296.082377,-148.041188,10342.289223
69857.580960,222.061783,0.000000,10495.508323
69857.581271,148.041188,0.000000,10189.070123
69857.581582,0.000000,148.041188,10265.679673
69857.581893,0.000000,0.000000,10418.898773
69857.582204,666.185348,0.000000,10418.898773
69857.582515,296.082377,-148.041188,10648.727422
69857.582826,0.000000,74.020594,11108.384721
69857.583137,-222.061783,0.000000,10342.289223
69857.583448,-148.041188,-296.082377,10265.679673
69857.583759,0.000000,74.020594,9882.631924
69857.584071,74.020594,74.020594,9806.022374
69857.584382,0.000000,814.226536,9652.803275
69857.584693,-148.041188,0.000000,10265.679673
69857.585004,370.102971,0.000000,10572.117872
69857.585315,444.123565,0.000000,9806.022374
69857.585626,0.000000,0.000000,9422.974625
69857.585937,-148.041188,74.020594,10189.070123
69857.586248,-148.041188,0.000000,10418.898773
69857.586559,222.061783,222.061783,10189.070123
69857.586870,222.061783,-148.041188,10265.679673
69857.587181,0.000000,-222.061783,9959.241474
69857.587492,0.000000,0.000000,10189.070123
69857.587804,0.000000,444.123565,10418.898773
69857.588115,0.000000,592.164754,10112.460574
69857.588426,0.000000,-666.185348,10648.727422
69857.588737,444.123565,0.000000,10418.898773
69857.589048,74.020594,0.000000,10112.460574
69857.589359,148.041188,518.144159,10112.460574
69857.589670,0.000000,148.041188,10418.898773
69857.589981,-148.041188,0.000000,10572.117872
69857.590292,74.020594,0.000000,10189.070123
69857.590603,0.000000,0.000000,10189.070123
69857.590914,-666.185348,296.082377,9806.022374
69857.591226,-296.082377,296.082377,10265.679673
69857.591537,0.000000,296.082377,10955.165621
69857.591848,370.102971,0.000000,10495.508323
69857.592159,148.041188,0.000000,10725.336972
69857.592470,0.000000,0.000000,10265.679673
69857.592781,0.000000,74.020594,10342.289223
69857.593092,74.020594,74.020594,10342.289223
69857.593403,-222.061783,0.000000,10648.727422
69857.593714,74.020594,0.000000,10112.460574
69857.594025,296.082377,74.020594,10342.289223
69857.594336,0.000000,-148.041188,10265.679673
69857.594647,222.061783,0.000000,10189.070123
69857.594959,148.041188,222.061783,10878.556072
69857.595270,74.020594,222.061783,10342.289223
69857.595581,74.020594,0.000000,10342.289223
69857.595892,296.082377,0.000000,10265.679673
69857.596203,0.000000,0.000000,10418.898773
69857.596514,296.082377,0.000000,9959.241474
69857.596825,0.000000,74.020594,10342.289223
69857.597136,-222.061783,0.000000,10189.070123
69857.597447,0.000000,-148.041188,10189.070123
69857.597758,370.102971,0.000000,10418.898773
69857.598069,74.020594,222.061783,10418.898773
69857.598380,0.000000,0.000000,10342.289223
69857.598692,222.061783,0.000000,10725.336972
69857.599003,0.000000,0.000000,10418.898773
69857.599314,666.185348,0.000000,10265.679673
69857.599625,222.061783,222.061783,10342.289223
69857.599936,148.041188,0.000000,10418.898773
69857.600247,0.000000,0.000000,10342.289223
69857.600558,0.000000,0.000000,10265.679673
69857.600869,-370.102971,-148.041188,9806.022374
69857.601180,370.102971,-370.102971,10878.556072
69857.601491,0.000000,74.020594,10495.508323
69857.601802,0.000000,-148.041188,10418.898773
69857.602113,0.000000,0.000000,10342.289223
69857.602425,0.000000,0.000000,10342.289223
69857.602736,222.061783,148.041188,10035.851024
69857.603047,148.041188,0.000000,10418.898773
69857.603358,0.000000,0.000000,10189.070123
69857.603669,0.000000,444.123565,10418.898773
69857.603980,0.000000,0.000000,10342.289223
69857.604291,444.123565,74.020594,11031.775171
69857.604602,0.000000,148.041188,10342.289223
69857.604913,-296.082377,-370.102971,10418.898773
69857.605224,0.000000,222.061783,10112.460574
69857.605535,74.020594,0.000000,10418.898773
69857.605847,0.000000,-370.102971,10265.679673
69857.606158,0.000000,0.000000,10342.289223
69857.606469,370.102971,222.061783,9806.022374
69857.606780,0.000000,222.061783,10955.165621
69857.607091,0.000000,74.020594,9806.022374
69857.607402,148.041188,-148.041188,9806.022374
69857.607713,74.020594,0.000000,10418.898773
69857.608024,148.041188,222.061783,10342.289223
69857.608335,0.000000,0.000000,10342.289223
69857.608646,-370.102971,-222.061783,10572.117872
69857.608957,0.000000,-148.041188,10112.460574
69857.609268,518.144159,0.000000,10418.898773
69857.609580,-296.082377,-222.061783,10265.679673
69857.609891,296.082377,0.000000,10265.679673
69857.610202,148.041188,0.000000,10801.946522
69857.610513,74.020594,0.000000,10189.070123
69857.610824,222.061783,0.000000,10342.289223
69857.611135,296.082377,74.020594,10265.679673
69857.611446,0.000000,0.000000,10418.898773
69857.611757,0.000000,0.000000,10495.508323
69857.612068,0.000000,0.000000,10572.117872
69857.612379,74.020594,-296.082377,10035.851024
69857.612690,1036.288319,-296.082377,10265.679673
69857.613001,148.041188,74.020594,10878.556072
69857.613313,74.020594,0.000000,10418.898773
69857.613624,296.082377,0.000000,10342.289223
69857.613935,0.000000,-148.041188,10112.460574
69857.614246,222.061783,0.000000,10265.679673
69857.614557,0.000000,74.020594,10418.898773
69857.614868,0.000000,-296.082377,10418.898773
69857.615179,222.061783,0.000000,10648.727422
69857.615490,148.041188,0.000000,10418.898773
69857.615801,-148.041188,0.000000,10648.727422
69857.616112,0.000000,0.000000,10342.289223
69857.616423,0.000000,888.247130,10572.117872
69857.616734,-518.144159,74.020594,9806.022374
69857.617046,518.144159,74.020594,9806.022374
69857.617357,74.020594,0.000000,9882.631924
69857.617668,0.000000,0.000000,10342.289223
69857.617979,0.000000,0.000000,10342.289223
69857.618290,0.000000,74.020594,10035.851024
69857.618601,0.000000,74.020594,10265.679673
69857.618912,0.000000,0.000000,10648.727422
69857.619223,370.102971,0.000000,10495.508323
69857.619534,0.000000,74.020594,10418.898773
69857.619845,296.082377,0.000000,9882.631924
69857.620156,518.144159,-296.082377,10112.460574
69857.620468,0.000000,-222.061783,10189.070123
69857.620779,370.102971,0.000000,10418.898773
69857.621090,74.020594,0.000000,10265.679673
69857.621401,296.082377,-222.061783,10112.460574
69857.621712,0.000000,0.000000,10112.460574
69857.622023,74.020594,-148.041188,9806.022374
69857.622334,74.020594,296.082377,10801.946522
69857.622645,0.000000,-592.164754,10955.165621
69857.622956,518.144159,-148.041188,10418.898773
69857.623267,0.000000,222.061783,10342.289223
69857.623578,296.082377,0.000000,10112.460574
69857.623889,0.000000,0.000000,10418.898773
69857.624201,74.020594,148.041188,10189.070123
69857.624512,0.000000,148.041188,10342.289223
69857.624823,222.061783,222.061783,10112.460574
69857.625134,0.000000,-148.041188,10648.727422
69857.625445,0.000000,0.000000,10342.289223
69857.625756,-296.082377,0.000000,9729.412825
69857.626067,444.123565,74.020594,10112.460574
69857.626378,74.020594,74.020594,10265.679673
69857.626689,-296.082377,-222.061783,10572.117872
69857.627000,0.000000,0.000000,10495.508323
69857.627311,0.000000,222.061783,10112.460574
69857.627622,296.082377,0.000000,10189.070123
69857.627934,-444.123565,0.000000,10189.070123
69857.628245,-740.205942,592.164754,10035.851024
69857.628556,74.020594,74.020594,10495.508323
69857.628867,222.061783,0.000000,9959.241474
69857.629178,74.020594,-370.102971,9959.241474
69857.629489,148.041188,74.020594,10265.679673
69857.629800,148.041188,148.041188,10495.508323
69857.630111,-370.102971,148.041188,10495.508323
69857.630422,222.061783,-148.041188,10189.070123
69857.630733,148.041188,0.000000,10189.070123
69857.631044,-148.041188,74.020594,10342.289223
69857.631356,74.020594,0.000000,10418.898773
69857.631667,0.000000,-222.061783,10189.070123
69857.631978,370.102971,0.000000,10265.679673
69857.632289,592.164754,222.061783,10112.460574
69857.632600,222.061783,-888.247130,9882.631924
69857.632911,0.000000,0.000000,10342.289223
69857.633222,222.061783,148.041188,10189.070123
69857.633533,148.041188,0.000000,9806.022374
69857.633844,74.020594,0.000000,10112.460574
69857.634155,222.061783,0.000000,10112.460574
69857.634466,-222.061783,0.000000,10112.460574
69857.634777,148.041188,-296.082377,9806.022374
69857.635089,592.164754,74.020594,10035.851024
69857.635400,0.000000,-740.205942,10418.898773
69857.635711,222.061783,-370.102971,10418.898773
69857.636022,296.082377,0.000000,10112.460574
69857.636333,74.020594,-222.061783,10112.460574
69857.636644,222.061783,0.000000,10265.679673
69857.636955,0.000000,222.061783,10418.898773
69857.637266,0.000000,0.000000,10342.289223
69857.637577,74.020594,296.082377,10342.289223
69857.637888,0.000000,0.000000,11031.775171
69857.638199,0.000000,222.061783,11108.384721
69857.638510,-74.020594,666.185348,9806.022374
69857.638822,-148.041188,0.000000,10265.679673
69857.639133,222.061783,518.144159,10418.898773
69857.639444,222.061783,148.041188,10418.898773
69857.639755,-148.041188,0.000000,10495.508323
69857.640066,148.041188,0.000000,10495.508323
69857.640377,0.000000,0.000000,10112.460574
69857.640688,-296.082377,-370.102971,9806.022374
69857.640999,0.000000,74.020594,10112.460574
69857.641310,518.144159,0.000000,10878.556072
69857.641621,0.000000,0.000000,10418.898773
69857.641932,0.000000,0.000000,11108.384721
69857.642243,0.000000,0.000000,10265.679673
69857.642555,-148.041188,74.020594,10342.289223
69857.642866,370.102971,222.061783,10189.070123
69857.643177,0.000000,0.000000,10189.070123
69857.643488,0.000000,74.020594,9806.022374
69857.643799,222.061783,0.000000,10189.070123
69857.644110,0.000000,74.020594,10265.679673
69857.644421,222.061783,0.000000,10342.289223
69857.644732,370.102971,0.000000,10955.165621
69857.645043,0.000000,0.000000,10418.898773
69857.645354,148.041188,222.061783,10265.679673
69857.645665,148.041188,0.000000,10265.679673
69857.645977,0.000000,-296.082377,10342.289223
69857.646288,148.041188,222.061783,9806.022374
69857.646599,0.000000,0.000000,10418.898773
69857.646910,0.000000,-148.041188,10648.727422
69857.647221,-148.041188,-296.082377,10418.898773
69857.647532,222.061783,-296.082377,10418.898773
69857.647843,222.061783,0.000000,10342.289223
69857.648154,0.000000,-296.082377,10955.165621
69857.648465,0.000000,-222.061783,10189.070123
69857.648776,0.000000,0.000000,10112.460574
69857.649087,518.144159,222.061783,10265.679673
69857.649398,74.020594,0.000000,10189.070123
69857.649710,74.020594,0.000000,10265.679673
69857.650021,-148.041188,0.000000,10418.898773
69857.650332,0.000000,148.041188,10725.336972
69857.650643,-148.041188,222.061783,10418.898773
69857.650954,0.000000,0.000000,10265.679673
69857.651265,222.061783,-296.082377,10648.727422
69857.651576,296.082377,148.041188,10265.679673
69857.651887,148.041188,0.000000,10342.289223
69857.652198,0.000000,-222.061783,10342.289223
69857.652509,222.061783,0.000000,10189.070123
69857.652820,74.020594,370.102971,10265.679673
69857.653131,0.000000,-148.041188,10342.289223
69857.653443,0.000000,0.000000,10418.898773
69857.653754,74.020594,-666.185348,10342.289223
69857.654065,0.000000,740.205942,10112.460574
69857.654376,0.000000,0.000000,10112.460574
69857.654687,0.000000,-444.123565,10572.117872
69857.654998,0.000000,0.000000,10265.679673
69857.655309,518.144159,0.000000,10112.460574
69857.655620,0.000000,0.000000,10418.898773
69857.655931,-370.102971,0.000000,10265.679673
69857.656242,222.061783,74.020594,9729.412825
69857.656553,0.000000,74.020594,9806.022374
69857.656864,-296.082377,0.000000,10265.679673
69857.657176,0.000000,-222.061783,10342.289223
69857.657487,0.000000,148.041188,10572.117872
69857.657798,74.020594,148.041188,10342.289223
69857.658109,0.000000,0.000000,10112.460574
69857.658420,-148.041188,0.000000,10265.679673
69857.658731,0.000000,0.000000,10265.679673
69857.659042,370.102971,148.041188,10648.727422
69857.659353,444.123565,-592.164754,11031.775171
69857.659664,296.082377,0.000000,10572.117872
69857.659975,148.041188,296.082377,9806.022374
69857.660286,74.020594,0.000000,10189.070123
69857.660598,0.000000,0.000000,10495.508323
69857.660909,0.000000,0.000000,10418.898773
69857.661220,0.000000,0.000000,10112.460574
69857.661531,74.020594,0.000000,10265.679673
69857.661842,0.000000,148.041188,10342.289223
69857.662153,0.000000,148.041188,10265.679673
69857.662464,74.020594,0.000000,9959.241474
69857.662775,444.123565,-296.082377,9882.631924
69857.663086,0.000000,148.041188,10265.679673
69857.663397,444.123565,0.000000,10265.679673
69857.663708,222.061783,0.000000,10265.679673
69857.664019,148.041188,0.000000,10342.289223
69857.664331,74.020594,0.000000,10265.679673
69857.664642,0.000000,518.144159,10112.460574
69857.664953,-296.082377,0.000000,10418.898773
69857.665264,0.000000,148.041188,10189.070123
69857.665575,0.000000,0.000000,10342.289223
69857.665886,0.000000,-222.061783,10495.508323
69857.666197,444.123565,74.020594,10342.289223
69857.666508,74.020594,-74.020594,10035.851024
69857.666819,592.164754,0.000000,11108.384721
69857.667130,0.000000,-148.041188,10342.289223
69857.667441,0.000000,222.061783,10418.898773
69857.667752,74.020594,74.020594,10265.679673
69857.668064,148.041188,-148.041188,10418.898773
69857.668375,74.020594,-148.041188,10265.679673
69857.668686,222.061783,74.020594,10265.679673
69857.668997,370.102971,518.144159,9806.022374
69857.669308,0.000000,-74.020594,10112.460574
69857.669619,-296.082377,222.061783,10342.289223
69857.669930,0.000000,-370.102971,10342.289223
69857.670241,148.041188,-148.041188,10112.460574
69857.670552,444.123565,74.020594,10342.289223
69857.670863,0.000000,0.000000,10342.289223
69857.671174,0.000000,-148.041188,10342.289223
69857.671485,222.061783,0.000000,10265.679673
69857.671797,814.226536,74.020594,9652.803275
69857.672108,0.000000,148.041188,10035.851024
69857.672419,-518.144159,-740.205942,10035.851024
69857.672730,0.000000,-296.082377,10725.336972
69857.673041,0.000000,0.000000,10265.679673
69857.673352,0.000000,0.000000,10189.070123
69857.673663,74.020594,0.000000,10265.679673
69857.673974,74.020594,0.000000,10112.460574
69857.674285,148.041188,222.061783,10418.898773
69857.674596,518.144159,296.082377,10112.460574
69857.674907,-296.082377,0.000000,9806.022374
69857.675219,148.041188,-296.082377,11031.775171
69857.675530,-222.061783,0.000000,10878.556072
69857.675841,-148.041188,74.020594,10418.898773
69857.676152,74.020594,-222.061783,10495.508323
69857.676463,74.020594,0.000000,10189.070123
69857.676774,0.000000,148.041188,10265.679673
69857.677085,0.000000,0.000000,10418.898773
69857.677396,74.020594,0.000000,10725.336972
69857.677707,148.041188,0.000000,10265.679673
69857.678018,74.020594,222.061783,10112.460574
69857.678329,296.082377,-296.082377,10725.336972
69857.678640,74.020594,0.000000,10112.460574
69857.678952,296.082377,592.164754,10035.851024
69857.679263,74.020594,148.041188,10265.679673
69857.679574,0.000000,-148.041188,10189.070123
69857.679885,-148.041188,0.000000,10418.898773
69857.680196,148.041188,74.020594,10342.289223
69857.680507,74.020594,0.000000,10265.679673
69857.680818,0.000000,-148.041188,10342.289223
69857.681129,0.000000,-222.061783,10342.289223
69857.681440,148.041188,148.041188,10418.898773
69857.681751,-74.020594,370.102971,10418.898773
69857.682062,0.000000,-148.041188,10648.727422
69857.682374,0.000000,0.000000,9806.022374
69857.682685,148.041188,0.000000,10112.460574
69857.682996,0.000000,0.000000,10572.117872
69857.683307,0.000000,0.000000,10342.289223
69857.683618,0.000000,0.000000,10189.070123
69857.683929,148.041188,0.000000,10189.070123
69857.684240,296.082377,0.000000,9652.803275
69857.684551,-444.123565,-444.123565,10418.898773
69857.684862,222.061783,296.082377,11031.775171
69857.685173,222.061783,370.102971,10648.727422
69857.685485,0.000000,-518.144159,10725.336972
69857.685796,0.000000,-148.041188,10265.679673
69857.686107,518.144159,0.000000,10418.898773
69857.686418,148.041188,74.020594,10418.898773
69857.686729,0.000000,-222.061783,10495.508323
69857.687040,0.000000,-444.123565,10112.460574
69857.687351,74.020594,370.102971,10265.679673
69857.687662,296.082377,0.000000,9959.241474
69857.687973,222.061783,148.041188,9882.631924
69857.688284,0.000000,-296.082377,10418.898773
69857.688595,74.020594,0.000000,10112.460574
69857.688907,74.020594,814.226536,10801.946522
69857.689218,0.000000,-148.041188,10418.898773
69857.689529,0.000000,-222.061783,10265.679673
69857.689840,0.000000,0.000000,10495.508323
69857.690151,148.041188,74.020594,10572.117872
69857.690462,-296.082377,-74.020594,10342.289223
69857.690773,-296.082377,0.000000,10265.679673
69857.691084,222.061783,74.020594,10342.289223
69857.691395,0.000000,148.041188,10418.898773
69857.691706,0.000000,-370.102971,10955.165621
69857.692018,0.000000,0.000000,10035.851024
69857.692329,222.061783,74.020594,10189.070123
69857.692640,0.000000,74.020594,10418.898773
69857.692951,0.000000,0.000000,10112.460574
69857.693262,222.061783,148.041188,10265.679673
69857.693573,222.061783,518.144159,10035.851024
69857.693884,-74.020594,444.123565,11108.384721
69857.694195,74.020594,-296.082377,10955.165621
69857.694506,0.000000,-518.144159,10342.289223
69857.694817,0.000000,222.061783,10265.679673
69857.695129,0.000000,0.000000,10418.898773
69857.695440,-148.041188,0.000000,10342.289223
69857.695751,0.000000,-296.082377,10265.679673
69857.696062,0.000000,0.000000,9959.241474
69857.696373,222.061783,222.061783,10112.460574
69857.696684,74.020594,0.000000,10112.460574
69857.696995,0.000000,0.000000,10189.070123
69857.697306,0.000000,148.041188,10495.508323
69857.697617,592.164754,-74.020594,10418.898773
69857.697928,0.000000,296.082377,10572.117872
69857.698239,222.061783,296.082377,10265.679673
69857.698551,0.000000,0.000000,10495.508323
69857.698862,74.020594,-148.041188,10189.070123
69857.699173,148.041188,0.000000,10648.727422
69857.699484,148.041188,148.041188,10495.508323
69857.699795,0.000000,-222.061783,10265.679673
69857.700106,0.000000,-296.082377,10342.289223
69857.700417,-518.144159,148.041188,10418.898773
69857.700728,0.000000,222.061783,9729.412825
69857.701039,0.000000,148.041188,10035.851024
69857.701350,-222.061783,0.000000,10265.679673
69857.701662,0.000000,-222.061783,10955.165621
69857.701973,222.061783,74.020594,10418.898773
69857.702284,296.082377,0.000000,10265.679673
69857.702595,148.041188,0.000000,10342.289223
69857.702906,0.000000,0.000000,10265.679673
69857.703217,-296.082377,296.082377,11031.775171
69857.703528,222.061783,0.000000,10112.460574
69857.703839,296.082377,-296.082377,10189.070123
69857.704150,-222.061783,-296.082377,10418.898773
69857.704461,0.000000,0.000000,10878.556072
69857.704772,74.020594,0.000000,10265.679673
69857.705084,-148.041188,148.041188,10112.460574
69857.705395,222.061783,74.020594,10189.070123
69857.705706,74.020594,148.041188,10189.070123
69857.706017,0.000000,-74.020594,11261.603821
69857.706328,0.000000,-222.061783,10955.165621
69857.706639,222.061783,0.000000,10572.117872
69857.706950,74.020594,148.041188,10265.679673
69857.707261,148.041188,74.020594,10418.898773
69857.707572,0.000000,0.000000,10572.117872
69857.707883,0.000000,-222.061783,10572.117872
69857.708195,148.041188,0.000000,10189.070123
69857.708506,0.000000,0.000000,10189.070123
69857.708817,222.061783,370.102971,10572.117872
69857.709128,74.020594,74.020594,9729.412825
69857.709439,0.000000,-296.082377,9882.631924
69857.709750,592.164754,814.226536,9959.241474
69857.710061,296.082377,74.020594,10265.679673
69857.710372,0.000000,-296.082377,10572.117872
69857.710683,148.041188,0.000000,10342.289223
69857.710994,222.061783,148.041188,10342.289223
69857.711306,0.000000,74.020594,10342.289223
69857.711617,-296.082377,0.000000,10572.117872
69857.711928,-296.082377,0.000000,10418.898773
69857.712239,0.000000,0.000000,9882.631924
69857.712550,148.041188,0.000000,9882.631924
69857.712861,296.082377,74.020594,10112.460574
69857.713172,-222.061783,0.000000,10342.289223
69857.713483,0.000000,222.061783,10342.289223
69857.713794,0.000000,74.020594,10342.289223
69857.714105,0.000000,-148.041188,10265.679673
69857.714416,370.102971,0.000000,10572.117872
69857.714728,222.061783,0.000000,10035.851024
69857.715039,-148.041188,0.000000,10112.460574
69857.715350,148.041188,0.000000,10648.727422
69857.715661,0.000000,222.061783,10418.898773
69857.715972,0.000000,0.000000,10572.117872
69857.716283,0.000000,-592.164754,10035.851024
69857.716594,74.020594,0.000000,10495.508323
69857.716905,-296.082377,370.102971,10342.289223
69857.717216,0.000000,0.000000,10342.289223
69857.717527,74.020594,-222.061783,10035.851024
69857.717839,0.000000,-148.041188,10112.460574
69857.718150,74.020594,148.041188,10418.898773
69857.718461,0.000000,74.020594,10418.898773
69857.718772,74.020594,-148.041188,10648.727422
69857.719083,148.041188,-222.061783,9882.631924
69857.719394,-74.020594,148.041188,9882.631924
69857.719705,148.041188,370.102971,10342.289223
69857.720016,0.000000,0.000000,10342.289223
69857.720327,-222.061783,74.020594,10342.289223
69857.720638,0.000000,0.000000,10265.679673
69857.720950,0.000000,-222.061783,10265.679673
69857.721261,0.000000,-148.041188,10342.289223
69857.721572,296.082377,296.082377,10495.508323
69857.721883,-370.102971,296.082377,10725.336972
69857.722194,296.082377,0.000000,10418.898773
69857.722505,518.144159,148.041188,10189.070123
69857.722816,0.000000,0.000000,10418.898773
69857.723127,74.020594,0.000000,10878.556072
69857.723438,296.082377,0.000000,10418.898773
69857.723749,-148.041188,0.000000,10342.289223
69857.724060,-222.061783,0.000000,10572.117872
69857.724372,296.082377,296.082377,10801.946522
69857.724683,0.000000,0.000000,11031.775171
69857.724994,74.020594,-74.020594,10418.898773
69857.725305,370.102971,-74.020594,10112.460574
69857.725616,0.000000,0.000000,10189.070123
69857.725927,74.020594,222.061783,10342.289223
69857.726238,222.061783,-296.082377,10189.070123
69857.726549,0.000000,-222.061783,10342.289223
69857.726860,148.041188,0.000000,10265.679673
69857.727171,148.041188,148.041188,10189.070123
69857.727483,-148.041188,222.061783,10648.727422
69857.727794,-296.082377,-74.020594,10418.898773
69857.728105,0.000000,0.000000,10035.851024
69857.728416,0.000000,0.000000,10418.898773
69857.728727,148.041188,0.000000,10801.946522
69857.729038,0.000000,-296.082377,10572.117872
69857.729349,222.061783,0.000000,10189.070123
69857.729660,222.061783,0.000000,10265.679673
69857.729971,0.000000,-148.041188,10265.679673
69857.730282,74.020594,74.020594,10495.508323
69857.730593,222.061783,-148.041188,10189.070123
69857.730905,0.000000,0.000000,10495.508323
69857.731216,0.000000,0.000000,10265.679673
69857.731527,296.082377,222.061783,11108.384721
69857.731838,0.000000,-74.020594,10265.679673
69857.732149,0.000000,74.020594,10342.289223
69857.732460,0.000000,-222.061783,10801.946522
69857.732771,0.000000,0.000000,10342.289223
69857.733082,296.082377,74.020594,10189.070123
69857.733393,74.020594,0.000000,10189.070123
69857.733704,0.000000,0.000000,10342.289223
69857.734016,148.041188,0.000000,10418.898773
69857.734327,74.020594,148.041188,10648.727422
69857.734638,518.144159,-592.164754,10265.679673
69857.734949,370.102971,-666.185348,10725.336972
69857.735260,222.061783,0.000000,10955.165621
69857.735571,-222.061783,222.061783,10495.508323
69857.735882,74.020594,74.020594,10572.117872
69857.736193,0.000000,0.000000,10189.070123
69857.736504,0.000000,148.041188,10189.070123
69857.736815,222.061783,222.061783,10112.460574
69857.737127,0.000000,-222.061783,10342.289223
69857.737438,74.020594,-296.082377,10725.336972
69857.737749,222.061783,0.000000,9959.241474
69857.738060,296.082377,444.123565,9806.022374
69857.738371,-222.061783,-296.082377,10572.117872
69857.738682,0.000000,-296.082377,10495.508323
69857.738993,148.041188,0.000000,10265.679673
69857.739304,0.000000,0.000000,10189.070123
69857.739615,74.020594,-370.102971,10495.508323
69857.739926,0.000000,74.020594,10265.679673
69857.740237,0.000000,222.061783,10342.289223
69857.740549,74.020594,296.082377,10418.898773
69857.740860,296.082377,74.020594,9882.631924
69857.741171,0.000000,222.061783,10418.898773
69857.741482,74.020594,0.000000,10801.946522
69857.741793,592.164754,0.000000,10418.898773
69857.742104,0.000000,-370.102971,10342.289223
69857.742415,0.000000,0.000000,10189.070123
69857.742726,148.041188,148.041188,10342.289223
69857.743037,0.000000,0.000000,10189.070123
69857.743348,-370.102971,-666.185348,10265.679673
69857.743660,148.041188,0.000000,9729.412825
69857.743971,0.000000,370.102971,10265.679673
69857.744282,-148.041188,0.000000,10418.898773
69857.744593,0.000000,-148.041188,10189.070123
69857.744904,296.082377,74.020594,10189.070123
69857.745215,74.020594,0.000000,10189.070123
69857.745526,0.000000,0.000000,10342.289223
69857.745837,222.061783,0.000000,10265.679673
69857.746148,74.020594,-888.247130,10418.898773
69857.746459,74.020594,-296.082377,10495.508323
69857.746770,296.082377,-222.061783,10418.898773
69857.747082,-222.061783,0.000000,10189.070123
69857.747393,0.000000,74.020594,10112.460574
69857.747704,296.082377,0.000000,10189.070123
69857.748015,148.041188,-148.041188,10035.851024
69857.748326,0.000000,0.000000,10342.289223
69857.748637,222.061783,0.000000,10265.679673
69857.748948,666.185348,-296.082377,10112.460574
69857.749259,0.000000,0.000000,10342.289223
69857.749570,74.020594,0.000000,10342.289223
69857.749881,148.041188,148.041188,10265.679673
69857.750193,74.020594,0.000000,10265.679673
69857.750504,444.123565,-296.082377,10035.851024
69857.750815,74.020594,666.185348,10801.946522
69857.751126,74.020594,-666.185348,11184.994271
69857.751437,0.000000,0.000000,10418.898773
69857.751748,592.164754,0.000000,9806.022374
69857.752059,0.000000,-296.082377,10112.460574
69857.752370,0.000000,0.000000,10418.898773
69857.752681,296.082377,518.144159,10495.508323
69857.752992,74.020594,148.041188,10035.851024
69857.753304,74.020594,222.061783,10112.460574
69857.753615,888.247130,74.020594,10648.727422
69857.753926,814.226536,74.020594,11261.603821
69857.754237,0.000000,148.041188,10265.679673
69857.754548,0.000000,444.123565,10189.070123
69857.754859,0.000000,0.000000,10265.679673
69857.755170,-222.061783,74.020594,10418.898773
69857.755481,0.000000,0.000000,10189.070123
69857.755792,0.000000,-148.041188,10265.679673
69857.756103,-74.020594,148.041188,10878.556072
69857.756414,518.144159,444.123565,10112.460574
69857.756726,74.020594,0.000000,10342.289223
69857.757037,0.000000,-296.082377,10189.070123
69857.757348,148.041188,-148.041188,11031.775171
69857.757659,666.185348,222.061783,10189.070123
69857.757970,0.000000,74.020594,10265.679673
69857.758281,-148.041188,-148.041188,10265.679673
69857.758592,0.000000,0.000000,10495.508323
69857.758903,0.000000,444.123565,9806.022374
69857.759214,0.000000,0.000000,10418.898773
69857.759525,148.041188,0.000000,9959.241474
69857.759837,0.000000,-592.164754,10725.336972
69857.760148,0.000000,74.020594,10418.898773
69857.760459,222.061783,0.000000,10035.851024
69857.760770,0.000000,0.000000,10648.727422
69857.761081,0.000000,0.000000,9959.241474
69857.761392,0.000000,74.020594,10265.679673
69857.761703,0.000000,370.102971,10648.727422
69857.762014,444.123565,0.000000,10112.460574
69857.762325,74.020594,-592.164754,9729.412825
69857.762636,296.082377,370.102971,10265.679673
69857.762948,0.000000,148.041188,10265.679673
69857.763259,-148.041188,-222.061783,10495.508323
69857.763570,0.000000,0.000000,10189.070123
69857.763881,222.061783,0.000000,10112.460574
69857.764192,0.000000,74.020594,10342.289223
69857.764503,0.000000,370.102971,10878.556072
69857.764814,222.061783,296.082377,10342.289223
69857.765125,-148.041188,74.020594,10878.556072
69857.765436,148.041188,222.061783,10955.165621
69857.765747,74.020594,-148.041188,10342.289223
69857.766058,74.020594,0.000000,10648.727422
69857.766370,296.082377,74.020594,10572.117872
69857.766681,74.020594,0.000000,10418.898773
69857.766992,74.020594,-296.082377,10342.289223
69857.767303,148.041188,148.041188,10189.070123
69857.767614,0.000000,0.000000,10495.508323
69857.767925,0.000000,0.000000,10112.460574
69857.768236,0.000000,0.000000,10342.289223
69857.768547,0.000000,0.000000,10189.070123
69857.768858,370.102971,370.102971,10648.727422
69857.769169,370.102971,-296.082377,10418.898773
69857.769481,74.020594,0.000000,10572.117872
69857.769792,0.000000,0.000000,10495.508323
69857.770103,0.000000,-148.041188,10572.117872
69857.770414,0.000000,0.000000,10342.289223
69857.770725,0.000000,0.000000,10572.117872
69857.771036,222.061783,0.000000,10495.508323
69857.771347,0.000000,0.000000,9959.241474
69857.771658,148.041188,444.123565,10112.460574
69857.771969,518.144159,-148.041188,10955.165621
69857.772280,0.000000,296.082377,9499.584175
69857.772591,296.082377,148.041188,10418.898773
69857.772903,74.020594,0.000000,10189.070123
69857.773214,0.000000,-518.144159,10418.898773
69857.773525,0.000000,0.000000,10495.508323
69857.773836,74.020594,222.061783,10648.727422
69857.774147,74.020594,0.000000,10342.289223
69857.774458,74.020594,0.000000,10495.508323
69857.774769,-74.020594,222.061783,10035.851024
69857.775080,370.102971,-370.102971,10189.070123
69857.775391,518.144159,-814.226536,10342.289223
69857.775702,74.020594,74.020594,10112.460574
69857.776014,-148.041188,222.061783,10112.460574
69857.776325,0.000000,-296.082377,10265.679673
69857.776636,0.000000,0.000000,10189.070123
69857.776947,0.000000,74.020594,10035.851024
69857.777258,0.000000,148.041188,10572.117872
69857.777569,0.000000,518.144159,9959.241474
69857.777880,-666.185348,370.102971,10112.460574
69857.778191,370.102971,222.061783,9806.022374
69857.778502,0.000000,0.000000,10265.679673
69857.778813,0.000000,148.041188,10725.336972
69857.779125,0.000000,0.000000,10418.898773
69857.779436,0.000000,-148.041188,10495.508323
69857.779747,296.082377,74.020594,10189.070123
69857.780058,0.000000,0.000000,10112.460574
69857.780369,296.082377,0.000000,10189.070123
69857.780680,74.020594,296.082377,10418.898773
69857.780991,222.061783,-518.144159,10418.898773
69857.781302,74.020594,0.000000,10035.851024
69857.781613,0.000000,222.061783,10648.727422
69857.781924,0.000000,0.000000,10189.070123
69857.782235,0.000000,0.000000,10572.117872
69857.782547,148.041188,148.041188,10342.289223
69857.782858,0.000000,0.000000,10265.679673
69857.783169,0.000000,0.000000,10265.679673
69857.783480,0.000000,0.000000,10265.679673
69857.783791,0.000000,0.000000,10495.508323
69857.784102,74.020594,74.020594,10495.508323
69857.784413,518.144159,-74.020594,10112.460574
69857.784724,0.000000,-148.041188,10878.556072
69857.785035,-222.061783,222.061783,10342.289223
69857.785346,0.000000,518.144159,10418.898773
69857.785657,296.082377,74.020594,10648.727422
69857.785968,0.000000,74.020594,10189.070123
69857.786279,0.000000,0.000000,10189.070123
69857.786591,74.020594,222.061783,10495.508323
69857.786902,0.000000,-222.061783,10418.898773
69857.787213,0.000000,0.000000,10648.727422
69857.787524,0.000000,-370.102971,10572.117872
69857.787835,74.020594,0.000000,10418.898773
69857.788146,0.000000,74.020594,10955.165621
69857.788457,222.061783,148.041188,10035.851024
69857.788768,74.020594,148.041188,10189.070123
69857.789079,74.020594,0.000000,10265.679673
69857.789390,296.082377,0.000000,10265.679673
69857.789701,222.061783,0.000000,10189.070123
69857.790012,0.000000,74.020594,10648.727422
69857.790324,0.000000,518.144159,10265.679673
69857.790635,0.000000,-592.164754,10418.898773
69857.790946,-518.144159,-740.205942,11491.432470
69857.791257,74.020594,0.000000,10418.898773
69857.791568,-222.061783,0.000000,10342.289223
69857.791879,-222.061783,-222.061783,10189.070123
69857.792190,74.020594,74.020594,10112.460574
69857.792501,222.061783,-148.041188,10112.460574
69857.792812,0.000000,-148.041188,10189.070123
69857.793123,740.205942,-444.123565,10112.460574
69857.793434,592.164754,0.000000,11031.775171
69857.793745,-370.102971,-74.020594,10265.679673
69857.794057,296.082377,0.000000,10418.898773
69857.794368,74.020594,370.102971,10495.508323
69857.794679,0.000000,-148.041188,10418.898773
69857.794990,74.020594,0.000000,10265.679673
69857.795301,0.000000,0.000000,10265.679673
69857.795612,0.000000,0.000000,10418.898773
69857.795923,222.061783,74.020594,11108.384721
69857.796234,222.061783,-518.144159,10189.070123
69857.796545,-148.041188,0.000000,10342.289223
69857.796856,0.000000,444.123565,9959.241474
69857.797167,222.061783,0.000000,10265.679673
69857.797478,74.020594,-148.041188,10418.898773
69857.797789,0.000000,0.000000,10342.289223
69857.798101,0.000000,148.041188,10418.898773
69857.798412,0.000000,0.000000,10342.289223
69857.798723,444.123565,0.000000,10035.851024
69857.799034,0.000000,0.000000,10725.336972
69857.799345,370.102971,0.000000,10342.289223
69857.799656,148.041188,0.000000,10112.460574
69857.799967,74.020594,0.000000,10342.289223
69857.800278,666.185348,0.000000,10495.508323
69857.800589,-222.061783,0.000000,9652.803275
69857.800900,222.061783,74.020594,10725.336972
69857.801211,74.020594,0.000000,10112.460574
69857.801522,0.000000,148.041188,10648.727422
69857.801834,0.000000,0.000000,10418.898773
69857.802145,0.000000,0.000000,10572.117872
69857.802456,-148.041188,0.000000,10342.289223
69857.802767,370.102971,0.000000,10189.070123
69857.803078,-296.082377,0.000000,9806.022374
69857.803389,296.082377,-148.041188,10418.898773
69857.803700,592.164754,-296.082377,9882.631924
69857.804011,222.061783,0.000000,10035.851024
69857.804322,0.000000,-370.102971,11261.603821
69857.804633,0.000000,-148.041188,10035.851024
69857.804944,0.000000,0.000000,10112.460574
69857.805255,0.000000,74.020594,10418.898773
69857.805567,0.000000,148.041188,10342.289223
69857.805878,74.020594,-666.185348,10725.336972
69857.806189,0.000000,0.000000,10265.679673
69857.806500,444.123565,-222.061783,10648.727422
69857.806811,74.020594,0.000000,10342.289223
69857.807122,222.061783,0.000000,10342.289223
69857.807433,370.102971,0.000000,10265.679673
69857.807744,0.000000,74.020594,10265.679673
69857.808055,0.000000,0.000000,10035.851024
69857.808366,296.082377,0.000000,10265.679673
69857.808677,296.082377,0.000000,10189.070123
69857.808988,74.020594,-518.144159,10878.556072
69857.809300,148.041188,74.020594,10572.117872
69857.809611,-666.185348,148.041188,10648.727422
69857.809922,0.000000,0.000000,10572.117872
69857.810233,74.020594,148.041188,10035.851024
69857.810544,0.000000,222.061783,10265.679673
69857.810855,0.000000,148.041188,10265.679673
69857.811166,148.041188,0.000000,10265.679673
69857.811477,-444.123565,296.082377,10495.508323
69857.811788,222.061783,370.102971,10035.851024
69857.812099,0.000000,-296.082377,10495.508323
69857.812410,-148.041188,444.123565,9729.412825
69857.812721,0.000000,0.000000,10342.289223
69857.813032,-222.061783,148.041188,10572.117872
69857.813344,0.000000,0.000000,10418.898773
69857.813655,0.000000,0.000000,10265.679673
69857.813966,0.000000,0.000000,10418.898773
69857.814277,74.020594,222.061783,11184.994271
69857.814588,592.164754,-592.164754,10342.289223
69857.814899,0.000000,-518.144159,10112.460574
69857.815210,74.020594,296.082377,10342.289223
69857.815521,148.041188,148.041188,10189.070123
69857.815832,-148.041188,0.000000,10725.336972
69857.816143,0.000000,-296.082377,10342.289223
69857.816454,0.000000,74.020594,10112.460574
69857.816765,-222.061783,0.000000,10342.289223
69857.817077,0.000000,148.041188,11108.384721
69857.817388,74.020594,0.000000,10265.679673
69857.817699,0.000000,0.000000,10648.727422
69857.818010,296.082377,0.000000,10265.679673
69857.818321,222.061783,0.000000,10418.898773
69857.818632,222.061783,-296.082377,10418.898773
69857.818943,148.041188,-592.164754,10648.727422
69857.819254,592.164754,74.020594,10112.460574
69857.819565,0.000000,-296.082377,10418.898773
69857.819876,0.000000,0.000000,10265.679673
69857.820187,0.000000,296.082377,10648.727422
69857.820498,0.000000,0.000000,10112.460574
69857.820810,-222.061783,-370.102971,10035.851024
69857.821121,74.020594,0.000000,10265.679673
69857.821432,518.144159,0.000000,10418.898773
69857.821743,148.041188,-296.082377,10189.070123
69857.822054,0.000000,0.000000,11031.775171
69857.822365,-370.102971,0.000000,10572.117872
69857.822676,74.020594,0.000000,10342.289223
69857.822987,0.000000,222.061783,10418.898773
69857.823298,74.020594,-148.041188,10035.851024
69857.823609,0.000000,-222.061783,10112.460574
69857.823920,0.000000,0.000000,10572.117872
69857.824231,-296.082377,370.102971,11491.432470
69857.824543,-518.144159,148.041188,9806.022374
69857.824854,0.000000,74.020594,9806.022374
69857.825165,518.144159,-296.082377,9882.631924
69857.825476,148.041188,0.000000,10418.898773
69857.825787,0.000000,-222.061783,10342.289223
69857.826098,74.020594,0.000000,10112.460574
69857.826409,148.041188,-222.061783,10112.460574
69857.826720,148.041188,0.000000,10189.070123
69857.827031,148.041188,0.000000,10648.727422
69857.827342,-74.020594,0.000000,11031.775171
69857.827653,0.000000,0.000000,10265.679673
69857.827964,296.082377,-444.123565,10112.460574
69857.828275,74.020594,0.000000,10342.289223
69857.828587,222.061783,0.000000,10342.289223
69857.828898,222.061783,0.000000,10112.460574
69857.829209,74.020594,0.000000,10265.679673
69857.829520,222.061783,0.000000,10112.460574
69857.829831,0.000000,0.000000,10572.117872
69857.830142,-518.144159,-74.020594,10648.727422
69857.830453,296.082377,0.000000,10572.117872
69857.830764,148.041188,-370.102971,10648.727422
69857.831075,0.000000,0.000000,10495.508323
69857.831386,0.000000,370.102971,10495.508323
69857.831697,74.020594,0.000000,10189.070123
69857.832008,0.000000,0.000000,10189.070123
69857.832320,74.020594,0.000000,10112.460574
69857.832631,74.020594,0.000000,10035.851024
69857.832942,0.000000,74.020594,10342.289223
69857.833253,0.000000,0.000000,10112.460574
69857.833564,0.000000,0.000000,10265.679673
69857.833875,0.000000,0.000000,10189.070123
69857.834186,-518.144159,0.000000,10648.727422
69857.834497,0.000000,296.082377,10955.165621
69857.834808,-296.082377,0.000000,10112.460574
69857.835119,0.000000,74.020594,10112.460574
69857.835430,148.041188,0.000000,10189.070123
69857.835741,-370.102971,-222.061783,10035.851024
69857.836053,0.000000,0.000000,10342.289223
69857.836364,148.041188,0.000000,10035.851024
69857.836675,74.020594,222.061783,10418.898773
69857.836986,74.020594,-222.061783,10572.117872
69857.837297,0.000000,74.020594,10572.117872
69857.837608,518.144159,0.000000,9806.022374
69857.837919,0.000000,222.061783,10878.556072
69857.838230,0.000000,0.000000,10035.851024
69857.838541,222.061783,0.000000,10418.898773
69857.838852,-148.041188,0.000000,10418.898773
69857.839163,74.020594,148.041188,10112.460574
69857.839474,74.020594,-296.082377,10265.679673
69857.839786,-222.061783,0.000000,10189.070123
69857.840097,0.000000,592.164754,9882.631924
69857.840408,296.082377,222.061783,10342.289223
69857.840719,74.020594,-666.185348,10189.070123
69857.841030,0.000000,0.000000,10342.289223
69857.841341,666.185348,74.020594,9652.803275
69857.841652,222.061783,0.000000,10189.070123
69857.841963,0.000000,0.000000,10342.289223
69857.842274,0.000000,0.000000,10418.898773
69857.842585,0.000000,0.000000,10342.289223
69857.842896,148.041188,0.000000,10035.851024
69857.843207,-74.020594,74.020594,10572.117872
69857.843518,0.000000,-370.102971,10495.508323
69857.843830,-296.082377,74.020594,10418.898773
69857.844141,222.061783,370.102971,10265.679673
69857.844452,74.020594,-444.123565,10189.070123
69857.844763,0.000000,0.000000,10189.070123
69857.845074,148.041188,222.061783,10418.898773
69857.845385,148.041188,74.020594,10189.070123
69857.845696,0.000000,-518.144159,10189.070123
69857.846007,0.000000,-296.082377,10035.851024
69857.846318,592.164754,0.000000,10418.898773
69857.846629,222.061783,0.000000,10572.117872
69857.846940,0.000000,296.082377,10495.508323
69857.847251,0.000000,0.000000,10342.289223
69857.847563,0.000000,0.000000,10495.508323
69857.847874,370.102971,-148.041188,10112.460574
69857.848185,148.041188,-148.041188,10265.679673
69857.848496,74.020594,-370.102971,10342.289223
69857.848807,444.123565,0.000000,10265.679673
69857.849118,296.082377,0.000000,10189.070123
69857.849429,74.020594,-148.041188,10265.679673
69857.849740,0.000000,74.020594,10112.460574
69857.850051,148.041188,444.123565,10572.117872
69857.850362,0.000000,0.000000,9882.631924
69857.850673,74.020594,0.000000,10342.289223
69857.850984,0.000000,-148.041188,10418.898773
69857.851296,222.061783,0.000000,10495.508323
69857.851607,148.041188,0.000000,10495.508323
69857.851918,74.020594,-148.041188,10112.460574
69857.852229,296.082377,0.000000,9882.631924
69857.852540,296.082377,74.020594,10189.070123
69857.852851,592.164754,-74.020594,10265.679673
69857.853162,0.000000,148.041188,10495.508323
69857.853473,148.041188,74.020594,9729.412825
69857.853784,0.000000,0.000000,10342.289223
69857.854095,0.000000,0.000000,10418.898773
69857.854406,-148.041188,-296.082377,10342.289223
69857.854717,0.000000,0.000000,10189.070123
69857.855028,0.000000,74.020594,10265.679673
69857.855340,222.061783,74.020594,10418.898773
69857.855651,0.000000,0.000000,9806.022374
69857.855962,518.144159,0.000000,10342.289223
69857.856273,222.061783,74.020594,10035.851024
69857.856584,0.000000,148.041188,10418.898773
69857.856895,0.000000,0.000000,10495.508323
69857.857206,0.000000,0.000000,10342.289223
69857.857517,0.000000,0.000000,10342.289223
69857.857828,0.000000,0.000000,10189.070123
69857.858139,74.020594,-518.144159,10189.070123
69857.858450,0.000000,-148.041188,10725.336972
69857.858761,-222.061783,296.082377,10418.898773
69857.859073,296.082377,0.000000,10342.289223
69857.859384,148.041188,0.000000,10265.679673
69857.859695,148.041188,-296.082377,10189.070123
69857.860006,148.041188,0.000000,10342.289223
69857.860317,-148.041188,0.000000,10265.679673
69857.860628,0.000000,0.000000,10342.289223
69857.860939,-222.061783,0.000000,10342.289223
69857.861250,222.061783,148.041188,9652.803275
69857.861561,222.061783,0.000000,10418.898773
69857.861872,444.123565,0.000000,10495.508323
69857.862183,74.020594,-296.082377,10801.946522
69857.862494,148.041188,0.000000,10265.679673
69857.862806,518.144159,74.020594,9959.241474
69857.863117,0.000000,0.000000,10342.289223
69857.863428,0.000000,-296.082377,10189.070123
69857.863739,370.102971,0.000000,10112.460574
69857.864050,444.123565,0.000000,10035.851024
69857.864361,-296.082377,222.061783,10112.460574
69857.864672,-296.082377,-518.144159,10648.727422
69857.864983,0.000000,0.000000,10495.508323
69857.865294,74.020594,0.000000,10342.289223
69857.865605,0.000000,0.000000,9806.022374
69857.865916,74.020594,-222.061783,10342.289223
69857.866227,148.041188,74.020594,10418.898773
69857.866539,518.144159,0.000000,10189.070123
69857.866850,148.041188,0.000000,9882.631924
69857.867161,-296.082377,0.000000,10189.070123
69857.867472,0.000000,222.061783,10648.727422
69857.867783,74.020594,370.102971,10342.289223
69857.868094,-222.061783,-222.061783,10495.508323
69857.868405,-74.020594,-148.041188,10035.851024
69857.868716,0.000000,296.082377,10648.727422
69857.869027,-148.041188,148.041188,10648.727422
69857.869338,0.000000,-222.061783,10418.898773
69857.869649,74.020594,-370.102971,10265.679673
69857.869960,296.082377,-148.041188,10265.679673
69857.870271,74.020594,-222.061783,10265.679673
69857.870583,222.061783,0.000000,10572.117872
69857.870894,222.061783,-296.082377,10189.070123
69857.871205,148.041188,0.000000,10112.460574
69857.871516,666.185348,148.041188,10189.070123
69857.871827,-74.020594,0.000000,10189.070123
69857.872138,222.061783,-222.061783,10648.727422
69857.872449,148.041188,0.000000,10572.117872
69857.872760,74.020594,-148.041188,10495.508323
69857.873071,-296.082377,-296.082377,10418.898773
69857.873382,0.000000,148.041188,10418.898773
69857.873693,222.061783,74.020594,10189.070123
69857.874004,0.000000,-148.041188,9806.022374
69857.874316,592.164754,0.000000,10112.460574
69857.874627,0.000000,222.061783,10265.679673
69857.874938,-74.020594,74.020594,9882.631924
69857.875249,0.000000,222.061783,10418.898773
69857.875560,-222.061783,0.000000,10112.460574
69857.875871,-222.061783,0.000000,10418.898773
69857.876182,74.020594,222.061783,10342.289223
69857.876493,0.000000,148.041188,10342.289223
69857.876804,-148.041188,0.000000,10572.117872
69857.877115,148.041188,-296.082377,10725.336972
69857.877426,148.041188,74.020594,9806.022374
69857.877737,74.020594,0.000000,10342.289223
69857.878049,222.061783,-296.082377,10342.289223
69857.878360,-148.041188,370.102971,10265.679673
69857.878671,148.041188,0.000000,10112.460574
69857.878982,0.000000,0.000000,10189.070123
69857.879293,-222.061783,0.000000,10342.289223
69857.879604,0.000000,148.041188,10648.727422
69857.879915,222.061783,74.020594,10878.556072
69857.880226,-296.082377,-222.061783,10342.289223
69857.880537,74.020594,-296.082377,9729.412825
69857.880848,222.061783,222.061783,10495.508323
69857.881159,296.082377,444.123565,10418.898773
69857.881470,74.020594,0.000000,10189.070123
69857.881782,0.000000,-296.082377,10342.289223
69857.882093,222.061783,0.000000,10112.460574
69857.882404,444.123565,148.041188,10189.070123
69857.882715,0.000000,-222.061783,10418.898773
69857.883026,-222.061783,-222.061783,10495.508323
69857.883336,74.020594,74.020594,10572.117872
69857.883647,0.000000,74.020594,10342.289223
69857.883958,0.000000,0.000000,10342.289223
69857.884269,0.000000,0.000000,10572.117872
69857.884580,222.061783,-296.082377,10648.727422
69857.884891,296.082377,0.000000,11108.384721
69857.885202,74.020594,0.000000,10265.679673
69857.885513,0.000000,-370.102971,10035.851024
69857.885824,74.020594,0.000000,10265.679673
69857.886135,0.000000,74.020594,10495.508323
69857.886446,-296.082377,0.000000,10265.679673
69857.886757,0.000000,0.000000,10189.070123
69857.887068,74.020594,0.000000,10418.898773
69857.887379,296.082377,74.020594,10035.851024
69857.887690,74.020594,0.000000,9959.241474
69857.888001,74.020594,0.000000,10112.460574
69857.888312,370.102971,296.082377,10035.851024
69857.888623,370.102971,0.000000,10112.460574
69857.888934,74.020594,0.000000,10189.070123
69857.889245,0.000000,0.000000,10265.679673
69857.889556,74.020594,74.020594,10418.898773
69857.889867,222.061783,0.000000,10725.336972
69857.890178,-370.102971,0.000000,10112.460574
69857.890489,0.000000,-518.144159,11031.775171
69857.890800,0.000000,0.000000,10418.898773
69857.891111,0.000000,444.123565,10418.898773
69857.891422,0.000000,0.000000,10265.679673
69857.891733,0.000000,0.000000,10265.679673
69857.892044,0.000000,222.061783,10189.070123
69857.892355,148.041188,148.041188,10418.898773
69857.892666,-444.123565,0.000000,10035.851024
69857.892977,-148.041188,148.041188,10418.898773
69857.893288,222.061783,-222.061783,10418.898773
69857.893599,0.000000,74.020594,10189.070123
69857.893910,0.000000,0.000000,10725.336972
69857.894221,0.000000,0.000000,10495.508323
69857.894532,0.000000,0.000000,10495.508323
69857.894843,74.020594,-222.061783,10418.898773
69857.895154,0.000000,0.000000,10342.289223
69857.895464,370.102971,-74.020594,9806.022374
69857.895775,-296.082377,-370.102971,10265.679673
69857.896086,592.164754,0.000000,10265.679673
69857.896397,0.000000,74.020594,10342.289223
69857.896708,74.020594,0.000000,10418.898773
69857.897019,0.000000,0.000000,10418.898773
69857.897330,0.000000,0.000000,10265.679673
69857.897641,0.000000,0.000000,10418.898773
69857.897952,74.020594,0.000000,10035.851024
69857.898263,74.020594,0.000000,9806.022374
69857.898574,-222.061783,0.000000,10495.508323
69857.898885,0.000000,148.041188,10495.508323
69857.899196,222.061783,0.000000,10342.289223
69857.899507,0.000000,0.000000,10189.070123
69857.899818,0.000000,0.000000,9806.022374
69857.900129,296.082377,370.102971,10495.508323
69857.900440,0.000000,0.000000,10112.460574
69857.900751,0.000000,-222.061783,10495.508323
69857.901062,370.102971,148.041188,10495.508323
69857.901373,74.020594,148.041188,10265.679673
69857.901684,0.000000,74.020594,10418.898773
69857.901995,0.000000,0.000000,10418.898773
69857.902306,-296.082377,-148.041188,10418.898773
69857.902617,-148.041188,-296.082377,10418.898773
69857.902928,0.000000,296.082377,10342.289223
69857.903239,0.000000,222.061783,9652.803275
69857.903550,0.000000,-222.061783,10035.851024
69857.903861,74.020594,222.061783,10725.336972
69857.904172,296.082377,0.000000,10189.070123
69857.904483,0.000000,0.000000,10342.289223
69857.904794,0.000000,0.000000,10265.679673
69857.905105,0.000000,0.000000,10418.898773
69857.905416,222.061783,0.000000,10342.289223
69857.905727,-370.102971,296.082377,10418.898773
69857.906038,-296.082377,296.082377,9959.241474
69857.906349,0.000000,0.000000,10495.508323
69857.906660,0.000000,0.000000,10418.898773
69857.906971,74.020594,0.000000,10342.289223
69857.907282,0.000000,-370.102971,10189.070123
69857.907592,74.020594,74.020594,10265.679673
69857.907903,74.020594,0.000000,10342.289223
69857.908214,0.000000,0.000000,11031.775171
69857.908525,444.123565,-370.102971,10112.460574
69857.908836,-74.020594,0.000000,10418.898773
69857.909147,148.041188,222.061783,10418.898773
69857.909458,0.000000,148.041188,10342.289223
69857.909769,0.000000,0.000000,10495.508323
69857.910080,74.020594,-296.082377,10265.679673
69857.910391,296.082377,0.000000,10265.679673
69857.910702,148.041188,0.000000,10495.508323
69857.911013,-148.041188,148.041188,10648.727422
69857.911324,370.102971,-74.020594,11031.775171
69857.911635,74.020594,74.020594,10112.460574
69857.911946,148.041188,-148.041188,10572.117872
69857.912257,0.000000,0.000000,10418.898773
69857.912568,-296.082377,0.000000,10265.679673
69857.912879,0.000000,0.000000,10265.679673
69857.913190,296.082377,0.000000,10265.679673
69857.913501,0.000000,-148.041188,10265.679673
69857.913812,0.000000,-592.164754,10418.898773
69857.914123,-444.123565,518.144159,10418.898773
69857.914434,-222.061783,222.061783,10265.679673
69857.914745,222.061783,0.000000,10648.727422
69857.915056,0.000000,-222.061783,10265.679673
69857.915367,-148.041188,74.020594,10572.117872
69857.915678,148.041188,74.020594,10418.898773
69857.915989,74.020594,74.020594,10189.070123
69857.916300,0.000000,-148.041188,10035.851024
69857.916611,0.000000,-296.082377,10725.336972
69857.916922,0.000000,0.000000,10265.679673
69857.917233,0.000000,0.000000,10112.460574
69857.917544,222.061783,-370.102971,10189.070123
69857.917855,0.000000,-148.041188,10342.289223
69857.918166,148.041188,-74.020594,9882.631924
69857.918477,74.020594,0.000000,10648.727422
69857.918788,74.020594,-444.123565,10342.289223
69857.919099,74.020594,0.000000,10265.679673
69857.919410,0.000000,0.000000,10495.508323
69857.919720,0.000000,0.000000,10418.898773
69857.920031,148.041188,0.000000,10112.460574
69857.920342,148.041188,0.000000,10112.460574
69857.920653,0.000000,0.000000,10112.460574
69857.920964,370.102971,222.061783,11031.775171
69857.921275,0.000000,0.000000,10342.289223
69857.921586,0.000000,-444.123565,10112.460574
69857.921897,592.164754,-518.144159,10418.898773
69857.922208,148.041188,0.000000,10342.289223
69857.922519,74.020594,-148.041188,10495.508323
69857.922830,0.000000,0.000000,10418.898773
69857.923141,0.000000,0.000000,10495.508323
69857.923452,0.000000,0.000000,10495.508323
69857.923763,0.000000,444.123565,10725.336972
69857.924074,0.000000,-222.061783,9806.022374
69857.924385,-296.082377,0.000000,10112.460574
69857.924696,-296.082377,-518.144159,10725.336972
69857.925007,0.000000,74.020594,10418.898773
69857.925318,444.123565,-222.061783,10112.460574
69857.925629,0.000000,-222.061783,10112.460574
69857.925940,0.000000,-222.061783,10265.679673
69857.926251,148.041188,0.000000,10265.679673
69857.926562,0.000000,0.000000,10265.679673
69857.926873,-74.020594,0.000000,10112.460574
69857.927184,0.000000,740.205942,10112.460574
69857.927495,296.082377,148.041188,10418.898773
69857.927806,0.000000,0.000000,10495.508323
69857.928117,296.082377,0.000000,10342.289223
69857.928428,0.000000,0.000000,10342.289223
69857.928739,0.000000,74.020594,10495.508323
69857.929050,74.020594,148.041188,10265.679673
69857.929361,0.000000,-148.041188,10342.289223
69857.929672,-296.082377,0.000000,9806.022374
69857.929983,370.102971,-74.020594,10648.727422
69857.930294,-444.123565,0.000000,10342.289223
69857.930605,0.000000,-148.041188,10265.679673
69857.930916,74.020594,0.000000,10342.289223
69857.931227,222.061783,0.000000,10342.289223
69857.931538,148.041188,0.000000,10418.898773
69857.931848,0.000000,0.000000,10265.679673
69857.932159,0.000000,0.000000,10189.070123
69857.932470,148.041188,74.020594,10265.679673
69857.932781,74.020594,0.000000,10189.070123
69857.933092,-148.041188,0.000000,10495.508323
69857.933403,0.000000,0.000000,10495.508323
69857.933714,0.000000,370.102971,10648.727422
69857.934025,222.061783,-222.061783,10572.117872
69857.934336,-74.020594,222.061783,10342.289223
69857.934647,-74.020594,74.020594,10189.070123
69857.934958,74.020594,0.000000,10342.289223
69857.935269,148.041188,0.000000,10418.898773
69857.935580,74.020594,0.000000,10265.679673
69857.935891,-222.061783,0.000000,10418.898773
69857.936202,296.082377,0.000000,10418.898773
69857.936513,74.020594,0.000000,10495.508323
69857.936824,0.000000,-296.082377,10418.898773
69857.937135,296.082377,148.041188,9806.022374
69857.937446,-222.061783,74.020594,10955.165621
69857.937757,0.000000,0.000000,10418.898773
69857.938068,74.020594,-296.082377,10112.460574
69857.938379,148.041188,0.000000,10112.460574
69857.938690,222.061783,0.000000,10342.289223
69857.939001,0.000000,74.020594,10342.289223
69857.939312,0.000000,0.000000,10265.679673
69857.939623,518.144159,-518.144159,9806.022374
69857.939934,0.000000,740.205942,10035.851024
69857.940245,222.061783,296.082377,10035.851024
69857.940556,0.000000,0.000000,10418.898773
69857.940867,0.000000,-222.061783,9806.022374
69857.941178,-148.041188,74.020594,10495.508323
69857.941489,148.041188,0.000000,10112.460574
69857.941800,0.000000,-222.061783,10112.460574
69857.942111,0.000000,0.000000,10572.117872
69857.942422,666.185348,296.082377,10342.289223
69857.942733,222.061783,74.020594,10801.946522
69857.943044,0.000000,-444.123565,9806.022374
69857.943355,148.041188,0.000000,10189.070123
69857.943666,0.000000,444.123565,10418.898773
69857.943976,148.041188,0.000000,10342.289223
69857.944287,74.020594,0.000000,10189.070123
69857.944598,0.000000,-148.041188,10189.070123
69857.944909,74.020594,0.000000,10342.289223
69857.945220,148.041188,222.061783,9806.022374
69857.945531,0.000000,222.061783,10418.898773
69857.945842,74.020594,-370.102971,10495.508323
69857.946153,-296.082377,592.164754,10495.508323
69857.946464,0.000000,148.041188,10265.679673
69857.946775,0.000000,0.000000,10112.460574
69857.947086,0.000000,-222.061783,10342.289223
69857.947397,74.020594,0.000000,10495.508323
69857.947708,74.020594,74.020594,10342.289223
69857.948019,148.041188,0.000000,11261.603821
69857.948330,0.000000,0.000000,10572.117872
69857.948641,0.000000,0.000000,10418.898773
69857.948952,0.000000,0.000000,10112.460574
69857.949263,0.000000,0.000000,10342.289223
69857.949574,-370.102971,444.123565,11031.775171
69857.949885,-296.082377,-592.164754,10189.070123
69857.950196,74.020594,740.205942,10342.289223
69857.950507,0.000000,74.020594,10189.070123
69857.950818,222.061783,0.000000,10189.070123
69857.951129,148.041188,0.000000,10342.289223
69857.951440,0.000000,74.020594,10418.898773
69857.951751,0.000000,-148.041188,10035.851024
69857.952062,0.000000,0.000000,10265.679673
69857.952373,0.000000,222.061783,10112.460574
69857.952684,-666.185348,296.082377,10265.679673
69857.952995,74.020594,0.000000,10112.460574
69857.953306,0.000000,0.000000,10342.289223
69857.953617,518.144159,0.000000,10572.117872
69857.953928,370.102971,148.041188,10265.679673
69857.954239,74.020594,0.000000,10189.070123
69857.954550,0.000000,0.000000,10342.289223
69857.954861,0.000000,0.000000,10189.070123
69857.955172,296.082377,-296.082377,9882.631924
69857.955483,74.020594,-740.205942,10648.727422
69857.955793,0.000000,-148.041188,10572.117872
69857.956104,0.000000,0.000000,10342.289223
69857.956415,0.000000,0.000000,10418.898773
69857.956726,0.000000,0.000000,10189.070123
69857.957037,0.000000,0.000000,10342.289223
69857.957348,148.041188,74.020594,10265.679673
69857.957659,74.020594,74.020594,10265.679673
69857.957970,0.000000,-370.102971,10112.460574
69857.958281,0.000000,-296.082377,10189.070123
69857.958592,370.102971,222.061783,11031.775171
69857.958903,-518.144159,0.000000,10495.508323
69857.959214,0.000000,0.000000,10265.679673
69857.959525,0.000000,0.000000,10035.851024
69857.959836,-222.061783,0.000000,10342.289223
69857.960147,0.000000,148.041188,10418.898773
69857.960458,0.000000,-370.102971,10418.898773
69857.960769,74.020594,0.000000,9806.022374
69857.961080,-296.082377,370.102971,10725.336972
69857.961391,-74.020594,296.082377,10342.289223
69857.961702,0.000000,0.000000,10878.556072
69857.962013,0.000000,0.000000,10495.508323
69857.962324,370.102971,222.061783,10342.289223
69857.962635,0.000000,74.020594,10265.679673
69857.962946,0.000000,0.000000,10265.679673
69857.963257,0.000000,0.000000,10342.289223
69857.963568,0.000000,296.082377,10495.508323
69857.963879,296.082377,74.020594,10572.117872
69857.964190,296.082377,-592.164754,10725.336972
69857.964501,592.164754,-222.061783,10342.289223
69857.964812,0.000000,0.000000,10572.117872
69857.965123,148.041188,-296.082377,10342.289223
69857.965434,0.000000,0.000000,10418.898773
69857.965745,0.000000,0.000000,10112.460574
69857.966056,222.061783,296.082377,10418.898773
69857.966367,-222.061783,222.061783,10572.117872
69857.966678,0.000000,-222.061783,10265.679673
69857.966989,148.041188,0.000000,10265.679673
69857.967300,296.082377,74.020594,10189.070123
69857.967611,0.000000,0.000000,10342.289223
69857.967921,74.020594,148.041188,10342.289223
69857.968232,-222.061783,-296.082377,11491.432470
69857.968543,296.082377,-148.041188,10342.289223
69857.968854,74.020594,0.000000,9959.241474
69857.969165,-296.082377,-444.123565,10265.679673
69857.969476,0.000000,0.000000,10265.679673
69857.969787,148.041188,370.102971,10265.679673
69857.970098,-148.041188,0.000000,10495.508323
69857.970409,0.000000,-222.061783,10418.898773
69857.970720,518.144159,148.041188,10955.165621
69857.971031,0.000000,444.123565,10342.289223
69857.971342,148.041188,-518.144159,10418.898773
69857.971653,444.123565,74.020594,10189.070123
69857.971964,-222.061783,0.000000,10189.070123
69857.972275,74.020594,222.061783,10418.898773
69857.972586,0.000000,0.000000,10418.898773
69857.972897,-296.082377,-296.082377,10418.898773
69857.973208,0.000000,74.020594,10495.508323
69857.973519,444.123565,296.082377,10342.289223
69857.973830,222.061783,0.000000,10342.289223
69857.974141,0.000000,0.000000,10342.289223
69857.974452,74.020594,296.082377,10725.336972
69857.974763,370.102971,0.000000,10265.679673
69857.975074,222.061783,592.164754,10418.898773
69857.975385,0.000000,0.000000,10189.070123
69857.975696,592.164754,0.000000,10648.727422
69857.976007,148.041188,74.020594,10418.898773
69857.976318,-148.041188,-148.041188,10495.508323
69857.976629,0.000000,296.082377,10342.289223
69857.976940,0.000000,0.000000,10035.851024
69857.977251,-592.164754,222.061783,10725.336972
69857.977562,0.000000,0.000000,10265.679673
69857.977873,-370.102971,0.000000,10878.556072
69857.978184,74.020594,0.000000,10342.289223
69857.978495,222.061783,74.020594,10265.679673
69857.978806,0.000000,0.000000,10572.117872
69857.979117,148.041188,0.000000,10265.679673
69857.979428,592.164754,888.247130,9652.803275
69857.979739,370.102971,-444.123565,10725.336972
69857.980049,-518.144159,-518.144159,9729.412825
69857.980360,0.000000,74.020594,10495.508323
69857.980671,-518.144159,148.041188,10342.289223
69857.980982,222.061783,0.000000,10265.679673
69857.981293,0.000000,-222.061783,10342.289223
69857.981604,0.000000,0.000000,10648.727422
69857.981915,222.061783,74.020594,10112.460574
69857.982226,444.123565,0.000000,9806.022374
69857.982537,0.000000,-222.061783,10265.679673
69857.982848,148.041188,74.020594,10342.289223
69857.983159,0.000000,148.041188,10572.117872
69857.983470,-444.123565,0.000000,10418.898773
69857.983780,0.000000,0.000000,9729.412825
69857.984091,-74.020594,222.061783,11261.603821
69857.984402,148.041188,740.205942,10189.070123
69857.984713,0.000000,-222.061783,10189.070123
69857.985024,-148.041188,0.000000,10189.070123
69857.985335,74.020594,148.041188,10189.070123
69857.985646,814.226536,74.020594,10955.165621
69857.985957,-148.041188,-148.041188,10342.289223
69857.986267,148.041188,444.123565,10112.460574
69857.986578,296.082377,2368.659014,10112.460574
69857.986889,666.185348,4219.173869,10572.117872
69857.987200,-222.061783,2368.659014,12104.308868
69857.987511,0.000000,888.247130,10648.727422
69857.987822,1998.556043,3701.029710,8733.488677
69857.988133,4811.338623,5107.421000,8886.707777
69857.988444,1998.556043,2664.741391,10265.679673
69857.988754,-222.061783,1036.288319,11414.822920
69857.989065,2368.659014,0.000000,10342.289223
69857.989376,2886.803174,-1184.329507,9346.365076
69857.989687,2886.803174,0.000000,8810.098227
69857.989998,3108.864956,2294.638420,10648.727422
69857.990309,2442.679609,962.267725,11491.432470
69857.990620,3552.988522,-444.123565,10035.851024
69857.990930,4145.153275,1554.432478,8503.660028
69857.991241,1998.556043,3627.009116,9959.241474
69857.991552,814.226536,4071.132681,12793.794817
69857.991863,-592.164754,3552.988522,12563.966167
69857.992174,0.000000,2664.741391,10418.898773
69857.992485,2516.700203,3256.906145,10418.898773
69857.992796,3182.885551,2442.679609,10725.336972
69857.993107,2886.803174,2960.823768,9882.631924
69857.993417,5921.647536,1480.411884,9729.412825
69857.993728,6513.812290,0.000000,8656.879127
69857.994039,5477.523971,1110.308913,8120.612279
69857.994350,5773.606348,2294.638420,9269.755526
69857.994661,2368.659014,888.247130,11184.994271
69857.994972,666.185348,296.082377,12104.308868
69857.995283,1924.535449,2886.803174,11184.994271
69857.995594,3923.091493,4663.297435,10035.851024
69857.995904,3478.967927,5255.462188,10725.336972
69857.996215,3701.029710,5551.544565,11184.994271
69857.996526,3775.050304,5625.565159,10648.727422
69857.996837,5847.626942,7179.997637,9422.974625
69857.997148,7994.224174,7772.162391,9039.926876
69857.997459,4515.256246,4663.297435,10265.679673
69857.997770,1998.556043,1554.432478,12334.137518
69857.998080,4515.256246,962.267725,10112.460574
69857.998391,6957.935855,1258.350101,8427.050478
69857.998702,4885.359217,-222.061783,9116.536426
69857.999013,3108.864956,-148.041188,10801.946522
69857.999324,2072.576638,1702.473667,12334.137518
69857.999635,2812.782580,2368.659014,10112.460574
69857.999946,3330.926739,3182.885551,10035.851024
69858.000257,2442.679609,3997.112087,10418.898773
69858.000567,0.000000,4293.194464,12563.966167
69858.000878,0.000000,3108.864956,13023.623466
69858.001189,2442.679609,2664.741391,10648.727422
69858.001500,5625.565159,3775.050304,7814.174080
69858.001811,4811.338623,4071.132681,8503.660028
69858.002122,2664.741391,4663.297435,11338.213370
69858.002433,3034.844362,4737.318029,11874.480219
69858.002744,4515.256246,3775.050304,9116.536426
69858.003054,4885.359217,1850.514855,8503.660028
69858.003365,5403.503377,962.267725,8963.317327
69858.003676,3034.844362,148.041188,10265.679673
69858.003987,2960.823768,222.061783,10112.460574
69858.004298,5255.462188,3034.844362,8963.317327
69858.004609,4219.173869,4663.297435,8733.488677
69858.004920,1036.288319,5551.544565,11797.870669
69858.005230,-1850.514855,5921.647536,14325.985813
69858.005541,-592.164754,4663.297435,12334.137518
69858.005852,1924.535449,2442.679609,10572.117872
69858.006163,3923.091493,1628.453072,8120.612279
69858.006474,4589.276840,4293.194464,9193.145976
69858.006785,3552.988522,5181.441594,10878.556072
69858.007096,2146.597232,3478.967927,11108.384721
69858.007407,2664.741391,1998.556043,10112.460574
69858.007717,2368.659014,2368.659014,10342.289223
69858.008028,2368.659014,3034.844362,9806.022374
69858.008339,2664.741391,3627.009116,10725.336972
69858.008650,518.144159,0.000000,11721.261119
69858.008961,3182.885551,-814.226536,10572.117872
69858.009272,5255.462188,1110.308913,9193.145976
69858.009583,2368.659014,-148.041188,8580.269578
69858.009894,2664.741391,4885.359217,10648.727422
69858.010204,3849.070898,7476.080014,10801.946522
69858.010515,2072.576638,4811.338623,12640.575717
69858.010826,148.041188,3182.885551,10725.336972
69858.011137,4145.153275,1998.556043,8733.488677
69858.011448,4441.235652,4663.297435,9116.536426
69858.011759,4885.359217,4293.194464,8963.317327
69858.012070,3552.988522,3108.864956,10342.289223
69858.012381,962.267725,-1036.288319,11031.775171
69858.012691,1924.535449,-444.123565,10495.508323
69858.013002,3256.906145,3108.864956,8656.879127
69858.013313,148.041188,2590.720797,10955.165621
69858.013624,-296.082377,-888.247130,13253.452115
69858.013935,74.020594,-1628.453072,11951.089769
69858.014246,2442.679609,-592.164754,8810.098227
69858.014557,4737.318029,2368.659014,8197.221829
69858.014867,3256.906145,3404.947333,10725.336972
69858.015178,-814.226536,1110.308913,11797.870669
69858.015489,814.226536,3256.906145,11184.994271
69858.015800,4145.153275,6735.874072,8963.317327
69858.016111,2146.597232,6809.894666,11261.603821
69858.016422,-888.247130,1850.514855,12487.356617
69858.016733,814.226536,370.102971,11108.384721
69858.017044,7254.018232,1850.514855,8044.002729
69858.017354,8734.430116,1036.288319,7277.907231
69858.017665,3627.009116,-1554.432478,8273.831378
69858.017976,666.185348,148.041188,10648.727422
69858.018287,3256.906145,4589.276840,10955.165621
69858.018598,2590.720797,4515.256246,10418.898773
69858.018909,-1850.514855,666.185348,11184.994271
69858.019220,-4737.318029,-1628.453072,12717.185267
69858.019531,-1036.288319,1184.329507,12027.699319
69858.019841,2960.823768,1850.514855,9652.803275
69858.020152,0.000000,-444.123565,8810.098227
69858.020463,1036.288319,2146.597232,10035.851024
69858.020774,3552.988522,4737.318029,10418.898773
69858.021085,296.082377,2442.679609,11261.603821
69858.021396,-1184.329507,-1332.370696,10801.946522
69858.021707,3552.988522,1036.288319,8197.221829
69858.022017,6217.729913,3330.926739,7890.783629
69858.022328,592.164754,-1998.556043,10265.679673
69858.022639,-4293.194464,-4441.235652,12334.137518
69858.022950,148.041188,1628.453072,11031.775171
69858.023261,4959.379811,3404.947333,10112.460574
69858.023572,-370.102971,-2812.782580,9729.412825
69858.023883,-5107.421000,-4515.256246,11951.089769
69858.024194,1036.288319,1554.432478,12257.527968
69858.024504,3923.091493,1628.453072,10189.070123
69858.024815,-222.061783,-3997.112087,8503.660028
69858.025126,-1110.308913,-1332.370696,9959.241474
69858.025437,2886.803174,4367.215058,10955.165621
69858.025748,1332.370696,1406.391290,11261.603821
69858.026059,-3923.091493,-3997.112087,10572.117872
69858.026370,740.205942,-1554.432478,9882.631924
69858.026681,4145.153275,2886.803174,9346.365076
69858.026991,0.000000,518.144159,11031.775171
69858.027302,-3404.947333,-1998.556043,10418.898773
69858.027613,1036.288319,2960.823768,9652.803275
69858.027924,3108.864956,3701.029710,10572.117872
69858.028235,-1554.432478,-2664.741391,10342.289223
69858.028546,-4145.153275,-4145.153275,10648.727422
69858.028857,1776.494261,-1480.411884,9652.803275
69858.029167,1702.473667,-1110.308913,10035.851024
69858.029478,-3404.947333,-1258.350101,9422.974625
69858.029789,-1776.494261,2294.638420,10801.946522
69858.030100,592.164754,3478.967927,11951.089769
69858.030411,-3552.988522,-444.123565,10878.556072
69858.030722,-3330.926739,-666.185348,9959.241474
69858.031033,4589.276840,2442.679609,8886.707777
69858.031344,3108.864956,-222.061783,9269.755526
69858.031654,-2442.679609,-3849.070898,9422.974625
69858.031965,-1406.391290,3404.947333,9269.755526
69858.032276,4737.318029,7550.100608,10495.508323
69858.032587,-1554.432478,-740.205942,12793.794817
69858.032898,-7698.141797,-7920.203579,11644.651570
69858.033209,-814.226536,-2664.741391,10189.070123
69858.033520,5847.626942,1702.473667,8197.221829
69858.033831,0.000000,-2072.576638,8503.660028
69858.034141,-4737.318029,-2516.700203,10878.556072
69858.034452,-814.226536,740.205942,12640.575717
69858.034763,-1554.432478,1332.370696,13100.233016
69858.035074,-2516.700203,-1480.411884,10265.679673
69858.035385,444.123565,-518.144159,8580.269578
69858.035696,2960.823768,1406.391290,9116.536426
69858.036007,0.000000,2072.576638,12027.699319
69858.036318,-962.267725,814.226536,10648.727422
69858.036628,2368.659014,1628.453072,8350.440928
69858.036939,3552.988522,1702.473667,9116.536426
69858.037250,-1110.308913,-1776.494261,10955.165621
69858.037561,-3256.906145,-2072.576638,11414.822920
69858.037872,1332.370696,-1480.411884,10265.679673
69858.038183,1702.473667,-1110.308913,10418.898773
69858.038494,-2442.679609,-2072.576638,9193.145976
69858.038804,-1036.288319,962.267725,10342.289223
69858.039115,2146.597232,1998.556043,11491.432470
69858.039426,-2220.617826,-296.082377,12104.308868
69858.039737,-962.267725,-1184.329507,9806.022374
69858.040048,3256.906145,2442.679609,8120.612279
69858.040359,4145.153275,2738.761985,8580.269578
69858.040670,-2146.597232,0.000000,10418.898773
69858.040981,-2146.597232,370.102971,10572.117872
69858.041291,2590.720797,2886.803174,10342.289223
69858.041602,-518.144159,370.102971,11414.822920
69858.041913,-3034.844362,-4589.276840,11108.384721
69858.042224,518.144159,-4811.338623,9729.412825
69858.042535,3256.906145,-3478.967927,7737.564530
69858.042846,-740.205942,-4219.173869,9652.803275
69858.043157,-3627.009116,-1554.432478,11721.261119
69858.043468,-2738.761985,888.247130,12104.308868
69858.043778,-2664.741391,-1924.535449,12027.699319
69858.044089,-6143.709319,-5995.668130,12257.527968
69858.044400,-3108.864956,-3182.885551,9882.631924
69858.044711,2220.617826,1110.308913,8886.707777
69858.045022,-370.102971,2072.576638,10342.289223
69858.045333,-2442.679609,592.164754,9806.022374
69858.045644,888.247130,2664.741391,8120.612279
69858.045954,222.061783,296.082377,8044.002729
69858.046265,-4515.256246,-3182.885551,11644.651570
69858.046576,-6883.915261,-2590.720797,12640.575717
69858.046887,-2146.597232,-518.144159,10801.946522
69858.047198,1628.453072,-4589.276840,9729.412825
69858.047509,-2368.659014,-9696.697840,8580.269578
69858.047820,-1406.391290,-5255.462188,8580.269578
69858.048131,2516.700203,1998.556043,10572.117872
69858.048441,74.020594,3330.926739,10878.556072
69858.048752,-3108.864956,-1702.473667,11108.384721
69858.049063,-5033.400406,-5551.544565,11031.775171
69858.049374,-5107.421000,-3552.988522,10342.289223
69858.049685,-3849.070898,1110.308913,11031.775171
69858.049996,-4441.235652,-592.164754,12640.575717
69858.050307,-7031.956449,-4811.338623,12257.527968
69858.050618,-3478.967927,-4071.132681,9959.241474
69858.050928,1702.473667,-370.102971,7890.783629
69858.051239,74.020594,-1776.494261,6971.469032
69858.051550,-4515.256246,-4737.318029,11644.651570
69858.051861,-6735.874072,-4959.379811,13100.233016
69858.052172,-3034.844362,-5329.482782,10955.165621
69858.052483,-814.226536,-6217.729913,6894.859482
69858.052794,-3701.029710,-6809.894666,7967.393179
69858.053104,-5033.400406,-5847.626942,12717.185267
69858.053415,-4811.338623,-2960.823768,11874.480219
69858.053726,-888.247130,-370.102971,9116.536426
69858.054037,-1480.411884,-518.144159,7814.174080
69858.054348,-4663.297435,-148.041188,10878.556072
69858.054659,-5551.544565,-592.164754,13406.671215
69858.054970,-4811.338623,-2664.741391,12104.308868
69858.055281,-1480.411884,-5995.668130,8350.440928
69858.055591,1850.514855,-4589.276840,5898.935335
69858.055902,296.082377,-3478.967927,9652.803275
69858.056213,-5329.482782,-6217.729913,12027.699319
69858.056524,-3552.988522,-6513.812290,11721.261119
69858.056835,814.226536,-3923.091493,8350.440928
69858.057146,-888.247130,-3701.029710,7507.735880
69858.057457,-5995.668130,-4071.132681,12487.356617
69858.057768,-7846.182985,-2590.720797,14096.157163
69858.058078,-4219.173869,-2368.659014,12563.966167
69858.058389,-2294.638420,-5477.523971,9269.755526
69858.058700,-2812.782580,-4959.379811,8503.660028
69858.059011,-1776.494261,370.102971,10418.898773
69858.059322,-2220.617826,2072.576638,11721.261119
69858.059633,-3775.050304,-962.267725,11414.822920
69858.059944,-3034.844362,-3034.844362,9882.631924
69858.060255,-296.082377,-3849.070898,9652.803275
69858.060565,-3701.029710,-6513.812290,10265.679673
69858.060876,-4663.297435,-7476.080014,9499.584175
69858.061187,-2442.679609,-5699.585753,8963.317327
69858.061498,-1406.391290,-4071.132681,8963.317327
69858.061809,-4737.318029,-3997.112087,11644.651570
69858.062120,-7846.182985,-2812.782580,12104.308868
69858.062431,-5329.482782,74.020594,11338.213370
69858.062741,-2664.741391,296.082377,10189.070123
69858.063052,-2590.720797,-222.061783,9729.412825
69858.063363,-2664.741391,-1480.411884,10189.070123
69858.063674,-2072.576638,-1850.514855,9422.974625
69858.063985,-1036.288319,-1628.453072,8350.440928
69858.064296,-1924.535449,-2590.720797,7660.954980
69858.064607,-2072.576638,-3256.906145,9346.365076
69858.064918,-4219.173869,-3108.864956,11874.480219
69858.065228,-7031.956449,-4071.132681,12410.747068
69858.065539,-6513.812290,-5107.421000,11568.042020
69858.065850,-3849.070898,-5181.441594,10112.460574
69858.066161,-2368.659014,-4737.318029,9882.631924
69858.066472,-4293.194464,-4885.359217,10572.117872
69858.066783,-5699.585753,-4515.256246,12027.699319
69858.067094,-4589.276840,-3330.926739,11491.432470
69858.067405,-3108.864956,-2442.679609,10342.289223
69858.067715,-3182.885551,-2072.576638,9806.022374
69858.068026,-4663.297435,-1258.350101,10878.556072
69858.068337,-4367.215058,-740.205942,12793.794817
69858.068648,-4441.235652,-2146.597232,11031.775171
69858.068959,-1702.473667,-3478.967927,8503.660028
69858.069270,888.247130,-3923.091493,7201.297681
69858.069581,-1184.329507,-3627.009116,8963.317327
69858.069891,-3997.112087,-3849.070898,11568.042020
69858.070202,-4145.153275,-3701.029710,10495.508323
69858.070513,-2294.638420,-3404.947333,9422.974625
69858.070824,-2664.741391,-3849.070898,9499.584175
69858.071135,-4441.235652,-3552.988522,11031.775171
69858.071446,-4737.318029,-2960.823768,11797.870669
69858.071757,-3627.009116,-2442.679609,11797.870669
69858.072068,-2146.597232,-2960.823768,9806.022374
69858.072378,-1776.494261,-4219.173869,8656.879127
69858.072689,-2442.679609,-3330.926739,9346.365076
69858.073000,-3923.091493,148.041188,10878.556072
69858.073311,-2220.617826,1776.494261,11568.042020
69858.073622,-2516.700203,-296.082377,11721.261119
69858.073933,-1850.514855,-2960.823768,9499.584175
69858.074244,1258.350101,-2220.617826,8656.879127
69858.074555,3182.885551,-1480.411884,8580.269578
69858.074865,592.164754,-3108.864956,9959.241474
69858.075176,-444.123565,-2960.823768,10418.898773
69858.075487,370.102971,-2072.576638,10725.336972
69858.075798,-1258.350101,-2516.700203,10878.556072
69858.076109,-2442.679609,-3108.864956,11031.775171
69858.076420,-1924.535449,-2664.741391,10955.165621
69858.076731,-2294.638420,-3256.906145,11184.994271
69858.077041,148.041188,-3108.864956,10878.556072
69858.077352,-592.164754,-3330.926739,9882.631924
69858.077663,-2368.659014,-3923.091493,10342.289223
69858.077974,-1480.411884,-3404.947333,11031.775171
69858.078285,-1998.556043,-2368.659014,10418.898773
69858.078596,-2812.782580,-3034.844362,10495.508323
69858.078907,-2146.597232,-3404.947333,10878.556072
69858.079218,-3404.947333,-3330.926739,10342.289223
69858.079528,-3330.926739,-4441.235652,10418.898773
69858.079839,-2442.679609,-5921.647536,9806.022374
69858.080150,-2368.659014,-4959.379811,10035.851024
69858.080461,-2664.741391,-4293.194464,9882.631924
69858.080772,-4367.215058,-4441.235652,10495.508323
69858.081083,-4885.359217,-2516.700203,10648.727422
69858.081394,-2738.761985,-814.226536,10572.117872
69858.081705,-3849.070898,-2368.659014,9882.631924
69858.082015,-5477.523971,-4737.318029,10725.336972
69858.082326,-3108.864956,-3923.091493,9959.241474
69858.082637,-1332.370696,-3404.947333,8350.440928
69858.082948,-2590.720797,-4885.359217,9422.974625
69858.083259,-4515.256246,-5403.503377,9346.365076
69858.083570,-5477.523971,-5255.462188,10648.727422
69858.083881,-6883.915261,-4885.359217,10648.727422
69858.084191,-7179.997637,-4811.338623,10955.165621
69858.084502,-7994.224174,-4219.173869,10572.117872
69858.084813,-7772.162391,-3182.885551,11338.213370
69858.085124,-7105.977043,-2960.823768,11951.089769
69858.085435,-7031.956449,-3997.112087,11261.603821
69858.085746,-5033.400406,-3849.070898,9882.631924
69858.086057,-3256.906145,-2294.638420,9193.145976
69858.086368,-3552.988522,-666.185348,8963.317327
69858.086679,-4737.318029,814.226536,11491.432470
69858.086990,-6439.791695,-740.205942,12104.308868
69858.087301,-7328.038826,-2368.659014,12410.747068
69858.087611,-5181.441594,-3701.029710,10035.851024
69858.087922,-3849.070898,-4811.338623,8350.440928
69858.088233,-4737.318029,-6291.750507,9422.974625
69858.088544,-4737.318029,-6809.894666,10418.898773
69858.088855,-6069.688724,-5329.482782,10725.336972
69858.089166,-6291.750507,-3701.029710,9576.193725
69858.089477,-5329.482782,-1184.329507,9959.241474
69858.089788,-7105.977043,-888.247130,11797.870669
69858.090099,-9548.656652,-3034.844362,13559.890315
69858.090410,-7328.038826,-2960.823768,11874.480219
69858.090720,-1924.535449,-148.041188,8120.612279
69858.091031,-148.041188,1258.350101,7354.516781
69858.091342,-2294.638420,666.185348,9499.584175
69858.091653,-4441.235652,-1332.370696,11874.480219
69858.091964,-3034.844362,-1924.535449,11338.213370
69858.092275,-1110.308913,-5403.503377,7967.393179
69858.092586,-2516.700203,-5995.668130,7814.174080
69858.092897,-3701.029710,-4811.338623,9882.631924
69858.093208,-4811.338623,-4811.338623,12793.794817
69858.093519,-5625.565159,-6291.750507,12640.575717
69858.093829,-5477.523971,-7624.121203,10955.165621
69858.094140,-4663.297435,-5181.441594,9729.412825
69858.094451,-2960.823768,-666.185348,10878.556072
69858.094762,-2368.659014,1184.329507,12793.794817
69858.095073,-3034.844362,-962.267725,12257.527968
69858.095384,-74.020594,-3034.844362,10035.851024
69858.095695,2960.823768,-962.267725,7354.516781
69858.096006,3627.009116,1924.535449,6894.859482
69858.096317,444.123565,0.000000,10342.289223
69858.096628,-2220.617826,-3701.029710,12563.966167
69858.096938,-814.226536,-5107.421000,10878.556072
69858.097249,1776.494261,-5773.606348,7277.907231
69858.097560,1924.535449,-5625.565159,7431.126331
69858.097871,-1850.514855,-7254.018232,12180.918418
69858.098182,-3997.112087,-9548.656652,12870.404366
69858.098493,-3627.009116,-8882.471304,11031.775171
69858.098804,518.144159,-4515.256246,8273.831378
69858.099115,-1110.308913,-1406.391290,9422.974625
69858.099426,-6217.729913,-962.267725,13866.328514
69858.099737,-7550.100608,592.164754,15781.567259
69858.100047,-1110.308913,222.061783,10955.165621
69858.100358,148.041188,-3923.091493,8963.317327
69858.100669,-2664.741391,-5551.544565,8503.660028
69858.100980,666.185348,1184.329507,8733.488677
69858.101291,4071.132681,3849.070898,10189.070123
69858.101602,-592.164754,-3330.926739,10112.460574
69858.101913,-2146.597232,-6809.894666,10112.460574
69858.102224,-1184.329507,-1480.411884,8273.831378
69858.102535,-814.226536,-1332.370696,10955.165621
69858.102846,-4811.338623,-5995.668130,12410.747068
69858.103156,-5329.482782,-7254.018232,11108.384721
69858.103467,-888.247130,-4367.215058,8886.707777
69858.103778,-1258.350101,-2294.638420,9806.022374
69858.104089,-6957.935855,-1406.391290,11568.042020
69858.104400,-6809.894666,2442.679609,12563.966167
69858.104711,-1628.453072,3552.988522,12180.918418
69858.105022,-2072.576638,74.020594,10342.289223
69858.105333,-3701.029710,-2146.597232,8503.660028
69858.105644,-740.205942,2812.782580,8503.660028
69858.105955,2146.597232,4589.276840,8810.098227
69858.106265,444.123565,1036.288319,9116.536426
69858.106576,-1776.494261,-2072.576638,8197.221829
69858.106887,0.000000,-2220.617826,9422.974625
69858.107198,-1036.288319,-3108.864956,11108.384721
69858.107509,-4885.359217,-4959.379811,10418.898773
69858.107820,-2442.679609,-3923.091493,9269.755526
69858.108131,74.020594,-3849.070898,10342.289223
69858.108442,-6513.812290,-6217.729913,12870.404366
69858.108753,-8364.327145,-4441.235652,14172.766713
69858.109064,-1702.473667,0.000000,11261.603821
69858.109374,7328.038826,2294.638420,8963.317327
69858.109685,-4367.215058,444.123565,8120.612279
69858.109996,-3849.070898,2146.597232,10342.289223
69858.110307,-1554.432478,2738.761985,14938.862211
69858.110618,-3923.091493,148.041188,13176.842566
69858.110929,-5255.462188,-666.185348,9729.412825
69858.111240,1850.514855,-4145.153275,7124.688131
69858.111551,-1184.329507,-1110.308913,10955.165621
69858.111862,-296.082377,888.247130,10878.556072
69858.112173,1554.432478,-2072.576638,10878.556072
69858.112483,-740.205942,-6661.853478,8656.879127
69858.112794,4589.276840,-4737.318029,7048.078582
69858.113105,2960.823768,-1406.391290,8197.221829
69858.113416,-5329.482782,-4145.153275,10648.727422
69858.113727,-6291.750507,1184.329507,15781.567259
69858.114038,-1850.514855,5921.647536,11644.651570
69858.114349,-1702.473667,2442.679609,11568.042020
69858.114660,-2590.720797,-1406.391290,10495.508323
69858.114971,-592.164754,1702.473667,10265.679673
69858.115282,2738.761985,3478.967927,10035.851024
69858.115592,4737.318029,3404.947333,9039.926876
69858.115903,6883.915261,3701.029710,5975.544884
69858.116214,3034.844362,592.164754,7431.126331
