#time,accel_x,accel_y,accel_z
69620.678095,0.000000,0.000000,10342.289223
69620.678406,148.041188,0.000000,9959.241474
69620.678717,74.020594,0.000000,10112.460574
69620.679028,296.082377,0.000000,10189.070123
69620.679340,370.102971,0.000000,10955.165621
69620.679651,148.041188,518.144159,9959.241474
69620.679962,74.020594,0.000000,10418.898773
69620.680273,74.020594,0.000000,10418.898773
69620.680584,0.000000,0.000000,10112.460574
69620.680895,74.020594,-296.082377,10342.289223
69620.681206,74.020594,0.000000,10495.508323
69620.681518,296.082377,222.061783,10878.556072
69620.681829,148.041188,-296.082377,10955.165621
69620.682140,0.000000,0.000000,10265.679673
69620.682451,0.000000,222.061783,10725.336972
69620.682762,148.041188,74.020594,10035.851024
69620.683073,0.000000,74.020594,10495.508323
69620.683384,0.000000,0.000000,10189.070123
69620.683696,-148.041188,-148.041188,10495.508323
69620.684007,0.000000,0.000000,9806.022374
69620.684318,-74.020594,222.061783,10035.851024
69620.684629,74.020594,-296.082377,10725.336972
69620.684940,-222.061783,74.020594,10648.727422
69620.685251,148.041188,148.041188,10801.946522
69620.685563,74.020594,74.020594,10189.070123
69620.685874,0.000000,-148.041188,10189.070123
69620.686185,74.020594,0.000000,10035.851024
69620.686496,0.000000,74.020594,10342.289223
69620.686807,592.164754,0.000000,9806.022374
69620.687118,0.000000,-148.041188,10035.851024
69620.687429,-148.041188,74.020594,10189.070123
69620.687741,0.000000,74.020594,10265.679673
69620.688052,0.000000,0.000000,10572.117872
69620.688363,74.020594,148.041188,10035.851024
69620.688674,0.000000,-296.082377,10955.165621
69620.688985,0.000000,0.000000,10035.851024
69620.689296,222.061783,0.000000,10035.851024
69620.689607,444.123565,0.000000,10342.289223
69620.689919,0.000000,0.000000,10342.289223
69620.690230,0.000000,148.041188,10418.898773
69620.690541,74.020594,0.000000,10265.679673
69620.690852,0.000000,-148.041188,10265.679673
69620.691163,0.000000,-444.123565,10801.946522
69620.691474,-296.082377,0.000000,10189.070123
69620.691785,0.000000,0.000000,10495.508323
69620.692097,0.000000,148.041188,10495.508323
69620.692408,-148.041188,0.000000,10572.117872
69620.692719,148.041188,-222.061783,10112.460574
69620.693030,0.000000,0.000000,10189.070123
69620.693341,0.000000,0.000000,10495.508323
69620.693652,0.000000,74.020594,10572.117872
69620.693964,-592.164754,0.000000,10342.289223
69620.694275,-370.102971,-296.082377,9652.803275
69620.694586,0.000000,370.102971,9806.022374
69620.694897,0.000000,74.020594,10342.289223
69620.695208,0.000000,0.000000,10418.898773
69620.695519,0.000000,74.020594,10418.898773
69620.695830,148.041188,0.000000,10418.898773
69620.696142,0.000000,0.000000,10189.070123
69620.696453,74.020594,0.000000,10189.070123
69620.696764,74.020594,-148.041188,10725.336972
69620.697075,0.000000,-296.082377,9729.412825
69620.697386,-296.082377,222.061783,10342.289223
69620.697697,-148.041188,-222.061783,10265.679673
69620.698008,0.000000,0.000000,10189.070123
69620.698320,0.000000,-148.041188,10418.898773
69620.698631,0.000000,0.000000,10265.679673
69620.698942,0.000000,74.020594,10418.898773
69620.699253,0.000000,74.020594,10418.898773
69620.699564,0.000000,370.102971,10648.727422
69620.699875,222.061783,-222.061783,10265.679673
69620.700186,148.041188,370.102971,9806.022374
69620.700498,222.061783,-74.020594,11338.213370
69620.700809,0.000000,0.000000,10342.289223
69620.701120,0.000000,-148.041188,10265.679673
69620.701431,0.000000,-148.041188,10265.679673
69620.701742,0.000000,0.000000,10189.070123
69620.702053,0.000000,0.000000,10342.289223
69620.702365,0.000000,296.082377,10342.289223
69620.702676,-74.020594,0.000000,10035.851024
69620.702987,0.000000,74.020594,10342.289223
69620.703298,-74.020594,518.144159,10342.289223
69620.703609,74.020594,-148.041188,10265.679673
69620.703920,74.020594,0.000000,10418.898773
69620.704231,0.000000,0.000000,10342.289223
69620.704543,148.041188,148.041188,10265.679673
69620.704854,0.000000,0.000000,10189.070123
69620.705165,0.000000,296.082377,10189.070123
69620.705476,0.000000,0.000000,10265.679673
69620.705787,0.000000,0.000000,10418.898773
69620.706098,148.041188,-222.061783,10418.898773
69620.706409,0.000000,-148.041188,10112.460574
69620.706721,0.000000,296.082377,9652.803275
69620.707032,296.082377,148.041188,9806.022374
69620.707343,0.000000,0.000000,9806.022374
69620.707654,74.020594,0.000000,10418.898773
69620.707965,148.041188,0.000000,10725.336972
69620.708276,148.041188,0.000000,10265.679673
69620.708588,0.000000,0.000000,10189.070123
69620.708899,0.000000,0.000000,10112.460574
69620.709210,-148.041188,0.000000,10495.508323
69620.709521,0.000000,222.061783,10725.336972
69620.709832,222.061783,-148.041188,10035.851024
69620.710143,0.000000,-74.020594,10035.851024
69620.710454,222.061783,0.000000,10035.851024
69620.710766,0.000000,0.000000,10265.679673
69620.711077,0.000000,222.061783,10265.679673
69620.711388,296.082377,0.000000,10265.679673
69620.711699,370.102971,-296.082377,10035.851024
69620.712010,0.000000,0.000000,10418.898773
69620.712321,0.000000,0.000000,10112.460574
69620.712632,518.144159,0.000000,10189.070123
69620.712944,0.000000,0.000000,10572.117872
69620.713255,222.061783,0.000000,10342.289223
69620.713566,0.000000,0.000000,10725.336972
69620.713877,0.000000,0.000000,10342.289223
69620.714188,0.000000,0.000000,10418.898773
69620.714499,0.000000,0.000000,10418.898773
69620.714810,0.000000,0.000000,10342.289223
69620.715122,74.020594,0.000000,10495.508323
69620.715433,444.123565,0.000000,10878.556072
69620.715744,296.082377,-518.144159,10189.070123
69620.716055,74.020594,-296.082377,10265.679673
69620.716366,222.061783,74.020594,10112.460574
69620.716677,0.000000,0.000000,10418.898773
69620.716989,0.000000,0.000000,10495.508323
69620.717300,0.000000,0.000000,10418.898773
69620.717611,148.041188,0.000000,10112.460574
69620.717922,0.000000,0.000000,10189.070123
69620.718233,296.082377,74.020594,10342.289223
69620.718544,-74.020594,222.061783,10112.460574
69620.718855,0.000000,74.020594,10572.117872
69620.719167,0.000000,-222.061783,10035.851024
69620.719478,0.000000,0.000000,10265.679673
69620.719789,74.020594,0.000000,10418.898773
69620.720100,0.000000,0.000000,10495.508323
69620.720411,0.000000,0.000000,10342.289223
69620.720722,0.000000,0.000000,10265.679673
69620.721033,0.000000,-148.041188,10725.336972
69620.721345,0.000000,-296.082377,10189.070123
69620.721656,148.041188,-222.061783,10418.898773
69620.721967,-222.061783,148.041188,10648.727422
69620.722278,0.000000,-296.082377,11184.994271
69620.722589,0.000000,-518.144159,9729.412825
69620.722900,148.041188,-74.020594,10265.679673
69620.723212,370.102971,-444.123565,10189.070123
69620.723523,222.061783,0.000000,10418.898773
69620.723834,0.000000,148.041188,10189.070123
69620.724145,0.000000,0.000000,10189.070123
69620.724456,0.000000,0.000000,10495.508323
69620.724767,0.000000,0.000000,10342.289223
69620.725078,148.041188,518.144159,10265.679673
69620.725390,296.082377,0.000000,10342.289223
69620.725701,222.061783,0.000000,10955.165621
69620.726012,74.020594,-74.020594,9959.241474
69620.726323,148.041188,0.000000,10189.070123
69620.726634,148.041188,74.020594,10342.289223
69620.726945,370.102971,222.061783,10112.460574
69620.727256,0.000000,0.000000,10035.851024
69620.727568,-222.061783,0.000000,10418.898773
69620.727879,0.000000,0.000000,10878.556072
69620.728190,222.061783,222.061783,10418.898773
69620.728501,-592.164754,-296.082377,10342.289223
69620.728812,-296.082377,0.000000,10878.556072
69620.729123,0.000000,0.000000,10418.898773
69620.729434,444.123565,222.061783,10955.165621
69620.729746,370.102971,0.000000,10265.679673
69620.730057,0.000000,0.000000,10189.070123
69620.730368,0.000000,0.000000,10418.898773
69620.730679,222.061783,148.041188,10418.898773
69620.730990,518.144159,148.041188,10418.898773
69620.731301,0.000000,-74.020594,9422.974625
69620.731613,0.000000,-296.082377,10725.336972
69620.731924,-222.061783,0.000000,10418.898773
69620.732235,0.000000,-148.041188,9499.584175
69620.732546,0.000000,0.000000,10265.679673
69620.732857,0.000000,0.000000,10189.070123
69620.733168,74.020594,74.020594,10495.508323
69620.733479,0.000000,0.000000,10418.898773
69620.733790,148.041188,-666.185348,9422.974625
69620.734101,740.205942,222.061783,10112.460574
69620.734412,518.144159,-296.082377,10265.679673
69620.734723,-222.061783,0.000000,10342.289223
69620.735034,74.020594,222.061783,10648.727422
69620.735345,0.000000,-296.082377,10112.460574
69620.735657,0.000000,0.000000,10265.679673
69620.735968,148.041188,0.000000,10572.117872
69620.736279,0.000000,0.000000,10342.289223
69620.736590,74.020594,222.061783,10418.898773
69620.736901,74.020594,0.000000,10189.070123
69620.737212,74.020594,-148.041188,10495.508323
69620.737523,0.000000,-370.102971,10189.070123
69620.737834,296.082377,222.061783,10265.679673
69620.738145,0.000000,0.000000,10725.336972
69620.738456,74.020594,-370.102971,10878.556072
69620.738767,296.082377,-296.082377,10648.727422
69620.739078,74.020594,148.041188,10418.898773
69620.739389,666.185348,74.020594,10495.508323
69620.739700,74.020594,-296.082377,10265.679673
69620.740011,0.000000,0.000000,10112.460574
69620.740322,0.000000,0.000000,10265.679673
69620.740633,74.020594,0.000000,10418.898773
69620.740944,148.041188,0.000000,10112.460574
69620.741255,-296.082377,0.000000,10342.289223
69620.741566,592.164754,-296.082377,10035.851024
69620.741877,296.082377,0.000000,10342.289223
69620.742188,740.205942,0.000000,10418.898773
69620.742500,296.082377,-148.041188,10189.070123
69620.742811,148.041188,74.020594,10495.508323
69620.743122,148.041188,-222.061783,10265.679673
69620.743433,148.041188,-148.041188,9959.241474
69620.743744,74.020594,222.061783,10725.336972
69620.744055,74.020594,148.041188,11108.384721
69620.744366,-518.144159,222.061783,10342.289223
69620.744677,0.000000,-148.041188,10189.070123
69620.744988,0.000000,222.061783,9729.412825
69620.745299,370.102971,0.000000,10035.851024
69620.745610,0.000000,0.000000,10418.898773
69620.745921,0.000000,148.041188,10342.289223
69620.746232,222.061783,0.000000,10265.679673
69620.746543,0.000000,-740.205942,10725.336972
69620.746854,148.041188,0.000000,10418.898773
69620.747165,-222.061783,518.144159,10265.679673
69620.747476,0.000000,296.082377,10189.070123
69620.747787,0.000000,-148.041188,11031.775171
69620.748098,74.020594,0.000000,10418.898773
69620.748409,148.041188,0.000000,10265.679673
69620.748720,74.020594,0.000000,10112.460574
69620.749031,0.000000,74.020594,10342.289223
69620.749343,148.041188,444.123565,9729.412825
69620.749654,592.164754,-222.061783,10648.727422
69620.749965,222.061783,-592.164754,9806.022374
69620.750276,518.144159,-74.020594,9959.241474
69620.750587,0.000000,0.000000,10265.679673
69620.750898,0.000000,0.000000,10189.070123
69620.751209,0.000000,0.000000,10342.289223
69620.751520,0.000000,0.000000,10112.460574
69620.751831,0.000000,0.000000,10265.679673
69620.752142,0.000000,0.000000,10648.727422
69620.752453,0.000000,444.123565,10265.679673
69620.752764,-148.041188,0.000000,10189.070123
69620.753075,0.000000,0.000000,10265.679673
69620.753386,0.000000,-222.061783,10112.460574
69620.753697,222.061783,0.000000,10189.070123
69620.754008,222.061783,0.000000,10572.117872
69620.754319,148.041188,0.000000,10418.898773
69620.754630,0.000000,0.000000,10342.289223
69620.754941,148.041188,74.020594,10418.898773
69620.755252,0.000000,0.000000,10265.679673
69620.755563,0.000000,0.000000,10495.508323
69620.755874,74.020594,0.000000,10495.508323
69620.756186,0.000000,74.020594,10495.508323
69620.756497,296.082377,0.000000,10342.289223
69620.756808,518.144159,0.000000,10342.289223
69620.757119,0.000000,74.020594,10648.727422
69620.757430,74.020594,0.000000,9806.022374
69620.757741,148.041188,-148.041188,10342.289223
69620.758052,0.000000,0.000000,10418.898773
69620.758363,0.000000,0.000000,10648.727422
69620.758674,0.000000,74.020594,10265.679673
69620.758985,-222.061783,0.000000,10265.679673
69620.759296,0.000000,0.000000,10878.556072
69620.759607,222.061783,0.000000,10878.556072
69620.759918,-370.102971,-74.020594,10418.898773
69620.760229,370.102971,-296.082377,10725.336972
69620.760540,74.020594,-148.041188,10265.679673
69620.760851,222.061783,-222.061783,10035.851024
69620.761162,222.061783,0.000000,10418.898773
69620.761473,148.041188,74.020594,10112.460574
69620.761784,148.041188,0.000000,10342.289223
69620.762095,-296.082377,0.000000,10342.289223
69620.762406,296.082377,0.000000,10342.289223
69620.762717,74.020594,-296.082377,10725.336972
69620.763029,222.061783,0.000000,10418.898773
69620.763340,0.000000,0.000000,10189.070123
69620.763651,222.061783,0.000000,10342.289223
69620.763962,-296.082377,0.000000,10418.898773
69620.764273,222.061783,0.000000,10189.070123
69620.764584,370.102971,0.000000,10265.679673
69620.764895,0.000000,0.000000,10342.289223
69620.765206,222.061783,-222.061783,11108.384721
69620.765517,74.020594,148.041188,9959.241474
69620.765828,0.000000,-444.123565,9882.631924
69620.766139,0.000000,-296.082377,10342.289223
69620.766450,-296.082377,-296.082377,10648.727422
69620.766761,-222.061783,0.000000,10495.508323
69620.767072,0.000000,74.020594,10418.898773
69620.767383,0.000000,0.000000,10265.679673
69620.767694,0.000000,0.000000,10801.946522
69620.768005,0.000000,222.061783,10725.336972
69620.768316,0.000000,296.082377,9806.022374
69620.768627,296.082377,222.061783,10648.727422
69620.768938,370.102971,0.000000,10495.508323
69620.769249,148.041188,148.041188,10495.508323
69620.769560,0.000000,0.000000,10418.898773
69620.769872,0.000000,0.000000,10572.117872
69620.770183,74.020594,0.000000,10342.289223
69620.770494,0.000000,148.041188,10265.679673
69620.770805,0.000000,0.000000,10265.679673
69620.771116,0.000000,0.000000,10418.898773
69620.771427,148.041188,0.000000,10112.460574
69620.771738,222.061783,0.000000,10189.070123
69620.772049,296.082377,148.041188,10725.336972
69620.772360,370.102971,222.061783,10342.289223
69620.772671,370.102971,518.144159,10495.508323
69620.772982,0.000000,0.000000,10418.898773
69620.773293,0.000000,0.000000,10418.898773
69620.773604,444.123565,0.000000,10418.898773
69620.773915,0.000000,-296.082377,10342.289223
69620.774226,-296.082377,0.000000,10495.508323
69620.774537,-370.102971,0.000000,10418.898773
69620.774848,0.000000,0.000000,10495.508323
69620.775159,592.164754,0.000000,10418.898773
69620.775470,0.000000,0.000000,10112.460574
69620.775781,592.164754,-370.102971,11031.775171
69620.776092,222.061783,0.000000,10112.460574
69620.776403,222.061783,962.267725,10342.289223
69620.776715,74.020594,0.000000,10342.289223
69620.777026,0.000000,-148.041188,10342.289223
69620.777337,0.000000,222.061783,10418.898773
69620.777648,74.020594,74.020594,10878.556072
69620.777959,0.000000,-296.082377,10648.727422
69620.778270,-148.041188,0.000000,10572.117872
69620.778581,0.000000,-370.102971,10265.679673
69620.778892,0.000000,74.020594,10265.679673
69620.779203,148.041188,0.000000,11414.822920
69620.779514,0.000000,0.000000,10342.289223
69620.779825,222.061783,0.000000,10189.070123
69620.780136,148.041188,0.000000,10418.898773
69620.780447,0.000000,0.000000,10265.679673
69620.780758,592.164754,0.000000,10418.898773
69620.781069,222.061783,-296.082377,10342.289223
69620.781380,444.123565,222.061783,10495.508323
69620.781691,148.041188,0.000000,10189.070123
69620.782002,-222.061783,0.000000,10572.117872
69620.782313,222.061783,-148.041188,10265.679673
69620.782624,0.000000,0.000000,10035.851024
69620.782935,0.000000,0.000000,10342.289223
69620.783246,0.000000,0.000000,10342.289223
69620.783558,444.123565,74.020594,10725.336972
69620.783869,222.061783,-666.185348,9729.412825
69620.784180,0.000000,0.000000,10112.460574
69620.784491,0.000000,148.041188,10112.460574
69620.784802,148.041188,0.000000,10725.336972
69620.785113,0.000000,148.041188,10418.898773
69620.785424,0.000000,0.000000,10342.289223
69620.785735,0.000000,0.000000,10189.070123
69620.786046,0.000000,0.000000,10342.289223
69620.786357,0.000000,444.123565,10342.289223
69620.786668,0.000000,0.000000,10265.679673
69620.786979,74.020594,0.000000,10495.508323
69620.787290,0.000000,0.000000,10418.898773
69620.787601,222.061783,-148.041188,10112.460574
69620.787912,222.061783,-296.082377,9729.412825
69620.788223,296.082377,0.000000,9729.412825
69620.788534,444.123565,148.041188,9806.022374
69620.788845,74.020594,0.000000,10342.289223
69620.789156,-370.102971,74.020594,10495.508323
69620.789467,0.000000,148.041188,10189.070123
69620.789778,0.000000,74.020594,10418.898773
69620.790089,0.000000,0.000000,10112.460574
69620.790401,74.020594,0.000000,10265.679673
69620.790712,-148.041188,0.000000,10725.336972
69620.791023,296.082377,-222.061783,10265.679673
69620.791334,148.041188,0.000000,9806.022374
69620.791645,222.061783,0.000000,10189.070123
69620.791956,222.061783,0.000000,10495.508323
69620.792267,0.000000,0.000000,10572.117872
69620.792578,0.000000,0.000000,10418.898773
69620.792889,0.000000,74.020594,10112.460574
69620.793200,0.000000,0.000000,10342.289223
69620.793511,0.000000,518.144159,9729.412825
69620.793822,0.000000,0.000000,10035.851024
69620.794133,0.000000,-148.041188,10342.289223
69620.794444,222.061783,0.000000,10265.679673
69620.794755,222.061783,0.000000,9499.584175
69620.795066,0.000000,0.000000,10342.289223
69620.795377,0.000000,0.000000,10418.898773
69620.795688,74.020594,0.000000,10495.508323
69620.795999,74.020594,0.000000,10189.070123
69620.796310,0.000000,-370.102971,10418.898773
69620.796621,74.020594,592.164754,9499.584175
69620.796932,0.000000,74.020594,10418.898773
69620.797244,0.000000,-370.102971,10035.851024
69620.797555,0.000000,0.000000,9729.412825
69620.797866,0.000000,0.000000,10112.460574
69620.798177,148.041188,-148.041188,10112.460574
69620.798488,148.041188,0.000000,10112.460574
69620.798799,74.020594,0.000000,10342.289223
69620.799110,0.000000,0.000000,10418.898773
69620.799421,0.000000,148.041188,9806.022374
69620.799732,296.082377,-222.061783,10189.070123
69620.800043,74.020594,-814.226536,9652.803275
69620.800354,-666.185348,370.102971,10265.679673
69620.800665,0.000000,148.041188,10342.289223
69620.800976,0.000000,0.000000,10265.679673
69620.801287,74.020594,-296.082377,10189.070123
69620.801598,0.000000,148.041188,10189.070123
69620.801909,148.041188,148.041188,10342.289223
69620.802220,222.061783,74.020594,10189.070123
69620.802531,-518.144159,-148.041188,10035.851024
69620.802842,222.061783,148.041188,10035.851024
69620.803153,-148.041188,-296.082377,10418.898773
69620.803464,0.000000,0.000000,10418.898773
69620.803775,148.041188,0.000000,10189.070123
69620.804087,74.020594,0.000000,10112.460574
69620.804398,0.000000,0.000000,10265.679673
69620.804709,0.000000,0.000000,10342.289223
69620.805020,0.000000,-296.082377,9806.022374
69620.805331,74.020594,-222.061783,9729.412825
69620.805642,518.144159,-74.020594,10342.289223
69620.805953,0.000000,-518.144159,10342.289223
69620.806264,148.041188,74.020594,10342.289223
69620.806575,0.000000,296.082377,10112.460574
69620.806886,0.000000,0.000000,10342.289223
69620.807197,0.000000,-148.041188,10265.679673
69620.807508,0.000000,0.000000,10495.508323
69620.807819,74.020594,0.000000,9806.022374
69620.808130,0.000000,-148.041188,10342.289223
69620.808441,74.020594,-74.020594,10418.898773
69620.808752,222.061783,0.000000,10342.289223
69620.809063,222.061783,0.000000,10189.070123
69620.809374,0.000000,222.061783,9806.022374
69620.809685,222.061783,0.000000,10035.851024
69620.809996,148.041188,0.000000,10418.898773
69620.810307,-148.041188,296.082377,10189.070123
69620.810618,148.041188,0.000000,10342.289223
69620.810930,-296.082377,-148.041188,10189.070123
69620.811241,0.000000,-222.061783,10342.289223
69620.811552,0.000000,0.000000,10342.289223
69620.811863,222.061783,0.000000,10418.898773
69620.812174,0.000000,518.144159,10878.556072
69620.812485,-222.061783,74.020594,10189.070123
69620.812796,74.020594,-444.123565,10342.289223
69620.813107,0.000000,-296.082377,10495.508323
69620.813418,74.020594,-148.041188,10265.679673
69620.813729,0.000000,-148.041188,10418.898773
69620.814040,0.000000,74.020594,10342.289223
69620.814351,222.061783,0.000000,10265.679673
69620.814662,0.000000,0.000000,10342.289223
69620.814973,0.000000,222.061783,10495.508323
69620.815284,0.000000,0.000000,10265.679673
69620.815595,370.102971,0.000000,10342.289223
69620.815906,-74.020594,0.000000,9806.022374
69620.816217,74.020594,0.000000,10495.508323
69620.816528,148.041188,0.000000,9959.241474
69620.816839,222.061783,0.000000,10189.070123
69620.817150,148.041188,0.000000,10189.070123
69620.817461,0.000000,0.000000,10189.070123
69620.817773,0.000000,0.000000,10572.117872
69620.818084,0.000000,74.020594,10342.289223
69620.818395,0.000000,0.000000,10495.508323
69620.818706,0.000000,222.061783,10725.336972
69620.819017,0.000000,74.020594,10648.727422
69620.819328,222.061783,74.020594,10035.851024
69620.819639,0.000000,0.000000,10112.460574
69620.819950,74.020594,0.000000,9959.241474
69620.820261,0.000000,0.000000,10265.679673
69620.820572,0.000000,74.020594,10648.727422
69620.820883,-592.164754,-148.041188,9806.022374
69620.821194,-370.102971,0.000000,10342.289223
69620.821505,-148.041188,222.061783,10112.460574
69620.821816,0.000000,0.000000,9882.631924
69620.822127,370.102971,444.123565,10418.898773
69620.822438,0.000000,0.000000,10418.898773
69620.822749,148.041188,0.000000,10495.508323
69620.823060,444.123565,74.020594,10035.851024
69620.823371,222.061783,0.000000,10035.851024
69620.823682,74.020594,-222.061783,10572.117872
69620.823993,0.000000,-148.041188,10495.508323
69620.824304,148.041188,74.020594,10035.851024
69620.824616,296.082377,-370.102971,9959.241474
69620.824927,148.041188,148.041188,10342.289223
69620.825238,148.041188,0.000000,10418.898773
69620.825549,0.000000,0.000000,10035.851024
69620.825860,0.000000,-296.082377,10189.070123
69620.826171,0.000000,0.000000,10265.679673
69620.826482,0.000000,518.144159,10035.851024
69620.826793,0.000000,148.041188,10342.289223
69620.827104,296.082377,222.061783,10265.679673
69620.827415,148.041188,0.000000,10189.070123
69620.827726,0.000000,-296.082377,10112.460574
69620.828037,0.000000,296.082377,10725.336972
69620.828348,-296.082377,0.000000,10112.460574
69620.828659,0.000000,-296.082377,10342.289223
69620.828970,0.000000,0.000000,10418.898773
69620.829281,370.102971,0.000000,10418.898773
69620.829592,0.000000,-222.061783,10035.851024
69620.829903,0.000000,-296.082377,10112.460574
69620.830214,74.020594,0.000000,10265.679673
69620.830525,0.000000,222.061783,10495.508323
69620.830836,74.020594,740.205942,10342.289223
69620.831147,-296.082377,0.000000,10495.508323
69620.831459,148.041188,-592.164754,10418.898773
69620.831770,148.041188,0.000000,10112.460574
69620.832081,0.000000,0.000000,10572.117872
69620.832392,0.000000,0.000000,10955.165621
69620.832703,0.000000,0.000000,10342.289223
69620.833014,0.000000,-148.041188,10418.898773
69620.833325,74.020594,0.000000,10112.460574
69620.833636,0.000000,74.020594,10648.727422
69620.833947,-148.041188,0.000000,9882.631924
69620.834258,0.000000,444.123565,9959.241474
69620.834569,148.041188,0.000000,10112.460574
69620.834880,222.061783,0.000000,10112.460574
69620.835191,148.041188,0.000000,10035.851024
69620.835502,222.061783,0.000000,10112.460574
69620.835813,0.000000,0.000000,10495.508323
69620.836124,-222.061783,74.020594,10572.117872
69620.836435,74.020594,0.000000,9346.365076
69620.836746,296.082377,-518.144159,10495.508323
69620.837057,74.020594,-592.164754,9882.631924
69620.837368,296.082377,0.000000,10265.679673
69620.837679,0.000000,592.164754,10112.460574
69620.837990,-296.082377,148.041188,9882.631924
69620.838301,148.041188,0.000000,9959.241474
69620.838612,222.061783,0.000000,9959.241474
69620.838923,0.000000,148.041188,10189.070123
69620.839234,0.000000,370.102971,9499.584175
69620.839545,0.000000,0.000000,10265.679673
69620.839856,0.000000,0.000000,10418.898773
69620.840167,0.000000,0.000000,10112.460574
69620.840478,74.020594,0.000000,10265.679673
69620.840789,222.061783,74.020594,10648.727422
69620.841100,-296.082377,-222.061783,10495.508323
69620.841411,518.144159,0.000000,10725.336972
69620.841722,148.041188,0.000000,10035.851024
69620.842033,370.102971,148.041188,10342.289223
69620.842344,0.000000,-222.061783,10418.898773
69620.842655,0.000000,148.041188,10572.117872
69620.842966,0.000000,0.000000,10572.117872
69620.843277,222.061783,0.000000,10265.679673
69620.843588,74.020594,0.000000,10725.336972
69620.843899,296.082377,-74.020594,10265.679673
69620.844210,0.000000,222.061783,10418.898773
69620.844521,74.020594,0.000000,10265.679673
69620.844832,0.000000,0.000000,10955.165621
69620.845143,74.020594,-148.041188,10265.679673
69620.845454,148.041188,74.020594,10265.679673
69620.845765,148.041188,0.000000,10112.460574
69620.846076,148.041188,-296.082377,10112.460574
69620.846387,0.000000,0.000000,10265.679673
69620.846698,-370.102971,74.020594,10878.556072
69620.847009,222.061783,-666.185348,10648.727422
69620.847320,74.020594,-148.041188,10265.679673
69620.847631,0.000000,148.041188,10342.289223
69620.847942,74.020594,148.041188,10418.898773
69620.848253,148.041188,0.000000,10418.898773
69620.848564,0.000000,-296.082377,10112.460574
69620.848875,148.041188,-222.061783,9882.631924
69620.849186,444.123565,0.000000,10418.898773
69620.849497,-592.164754,296.082377,10648.727422
69620.849808,0.000000,0.000000,10648.727422
69620.850119,222.061783,-444.123565,10265.679673
69620.850430,74.020594,0.000000,10112.460574
69620.850741,74.020594,0.000000,10189.070123
69620.851052,0.000000,0.000000,10418.898773
69620.851363,0.000000,0.000000,10572.117872
69620.851674,148.041188,74.020594,10265.679673
69620.851985,0.000000,-222.061783,10725.336972
69620.852296,-74.020594,0.000000,9729.412825
69620.852607,444.123565,222.061783,10112.460574
69620.852918,-148.041188,592.164754,10955.165621
69620.853229,0.000000,0.000000,10495.508323
69620.853540,-296.082377,0.000000,10725.336972
69620.853851,74.020594,-148.041188,10035.851024
69620.854162,148.041188,0.000000,10035.851024
69620.854473,-148.041188,0.000000,10342.289223
69620.854784,0.000000,-740.205942,10648.727422
69620.855095,0.000000,148.041188,10418.898773
69620.855406,0.000000,0.000000,9806.022374
69620.855717,296.082377,-370.102971,10112.460574
69620.856028,74.020594,0.000000,10342.289223
69620.856339,0.000000,148.041188,10648.727422
69620.856650,222.061783,0.000000,10265.679673
69620.856961,222.061783,0.000000,10189.070123
69620.857272,0.000000,0.000000,10265.679673
69620.857583,0.000000,0.000000,10495.508323
69620.857894,0.000000,0.000000,10495.508323
69620.858205,-296.082377,-148.041188,10495.508323
69620.858516,0.000000,74.020594,10342.289223
69620.858827,148.041188,0.000000,10189.070123
69620.859138,-148.041188,-444.123565,10725.336972
69620.859449,0.000000,0.000000,10418.898773
69620.859760,0.000000,0.000000,10342.289223
69620.860071,74.020594,74.020594,10035.851024
69620.860382,370.102971,0.000000,10189.070123
69620.860693,0.000000,0.000000,10265.679673
69620.861004,0.000000,0.000000,10265.679673
69620.861315,74.020594,222.061783,10342.289223
69620.861626,74.020594,0.000000,10265.679673
69620.861937,74.020594,-148.041188,10112.460574
69620.862248,0.000000,148.041188,10342.289223
69620.862559,222.061783,0.000000,10112.460574
69620.862870,-296.082377,-370.102971,10342.289223
69620.863181,0.000000,-148.041188,10112.460574
69620.863492,74.020594,148.041188,10495.508323
69620.863803,74.020594,0.000000,10189.070123
69620.864114,0.000000,0.000000,10418.898773
69620.864425,0.000000,0.000000,10189.070123
69620.864736,148.041188,-296.082377,10648.727422
69620.865047,0.000000,0.000000,9959.241474
69620.865358,74.020594,0.000000,10418.898773
69620.865669,-1258.350101,296.082377,10418.898773
69620.865980,0.000000,74.020594,10572.117872
69620.866291,370.102971,-148.041188,10189.070123
69620.866602,148.041188,0.000000,10112.460574
69620.866913,-222.061783,-222.061783,10189.070123
69620.867224,0.000000,0.000000,10648.727422
69620.867535,148.041188,296.082377,10495.508323
69620.867846,518.144159,-296.082377,10112.460574
69620.868157,0.000000,-74.020594,9729.412825
69620.868468,74.020594,-666.185348,10955.165621
69620.868779,0.000000,74.020594,10418.898773
69620.869090,0.000000,222.061783,10495.508323
69620.869401,222.061783,-222.061783,9959.241474
69620.869712,0.000000,74.020594,10265.679673
69620.870023,-296.082377,0.000000,10418.898773
69620.870334,-370.102971,0.000000,10495.508323
69620.870645,74.020594,444.123565,10265.679673
69620.870956,222.061783,74.020594,10418.898773
69620.871267,0.000000,-444.123565,9806.022374
69620.871578,74.020594,-370.102971,10265.679673
69620.871889,296.082377,0.000000,9882.631924
69620.872200,222.061783,0.000000,9882.631924
69620.872511,296.082377,0.000000,10265.679673
69620.872822,0.000000,0.000000,10189.070123
69620.873133,0.000000,0.000000,10418.898773
69620.873444,-148.041188,0.000000,10418.898773
69620.873755,0.000000,0.000000,10418.898773
69620.874066,0.000000,0.000000,10189.070123
69620.874377,0.000000,0.000000,10495.508323
69620.874688,0.000000,518.144159,10572.117872
69620.874999,592.164754,0.000000,10342.289223
69620.875310,0.000000,0.000000,10112.460574
69620.875621,518.144159,0.000000,10265.679673
69620.875932,0.000000,0.000000,10265.679673
69620.876243,0.000000,222.061783,10342.289223
69620.876554,0.000000,-296.082377,10265.679673
69620.876865,0.000000,0.000000,10265.679673
69620.877176,148.041188,0.000000,10189.070123
69620.877487,0.000000,0.000000,10418.898773
69620.877798,74.020594,148.041188,10878.556072
69620.878109,296.082377,-296.082377,10112.460574
69620.878420,148.041188,0.000000,9806.022374
69620.878731,74.020594,0.000000,10189.070123
69620.879042,222.061783,0.000000,10572.117872
69620.879353,74.020594,74.020594,10265.679673
69620.879664,148.041188,0.000000,10265.679673
69620.879975,0.000000,0.000000,10112.460574
69620.880286,-148.041188,0.000000,10189.070123
69620.880597,296.082377,0.000000,10878.556072
69620.880908,-666.185348,-74.020594,10112.460574
69620.881219,74.020594,-296.082377,10342.289223
69620.881530,-148.041188,-222.061783,10112.460574
69620.881841,0.000000,222.061783,10572.117872
69620.882152,0.000000,0.000000,10495.508323
69620.882463,444.123565,0.000000,10265.679673
69620.882774,518.144159,-148.041188,9959.241474
69620.883085,222.061783,0.000000,9959.241474
69620.883396,0.000000,74.020594,9576.193725
69620.883707,-148.041188,0.000000,10418.898773
69620.884018,592.164754,0.000000,10495.508323
69620.884329,222.061783,-370.102971,10418.898773
69620.884640,0.000000,-222.061783,10418.898773
69620.884951,0.000000,74.020594,10265.679673
69620.885262,0.000000,0.000000,10265.679673
69620.885573,148.041188,0.000000,10189.070123
69620.885884,74.020594,-222.061783,10189.070123
69620.886195,148.041188,-222.061783,9806.022374
69620.886506,0.000000,148.041188,9729.412825
69620.886817,74.020594,740.205942,10801.946522
69620.887128,-592.164754,0.000000,10189.070123
69620.887439,0.000000,0.000000,10342.289223
69620.887750,-222.061783,0.000000,10572.117872
69620.888061,-222.061783,0.000000,10265.679673
69620.888372,0.000000,0.000000,10189.070123
69620.888683,148.041188,0.000000,10265.679673
69620.888994,222.061783,-592.164754,10572.117872
69620.889305,74.020594,0.000000,10342.289223
69620.889616,148.041188,0.000000,10112.460574
69620.889927,74.020594,74.020594,9959.241474
69620.890238,0.000000,0.000000,10265.679673
69620.890549,0.000000,444.123565,9652.803275
69620.890860,444.123565,-74.020594,10648.727422
69620.891171,-148.041188,222.061783,10189.070123
69620.891482,74.020594,74.020594,10189.070123
69620.891793,74.020594,0.000000,9729.412825
69620.892104,0.000000,0.000000,10342.289223
69620.892415,-148.041188,0.000000,10648.727422
69620.892726,0.000000,0.000000,10342.289223
69620.893037,444.123565,-148.041188,9959.241474
69620.893348,370.102971,-296.082377,9806.022374
69620.893659,518.144159,-740.205942,10035.851024
69620.893970,0.000000,-74.020594,10342.289223
69620.894281,148.041188,148.041188,10265.679673
69620.894592,296.082377,296.082377,10265.679673
69620.894903,0.000000,0.000000,10035.851024
69620.895214,0.000000,0.000000,10342.289223
69620.895525,0.000000,0.000000,10572.117872
69620.895836,74.020594,0.000000,10418.898773
69620.896147,518.144159,-666.185348,10112.460574
69620.896458,296.082377,0.000000,10112.460574
69620.896769,518.144159,-74.020594,11261.603821
69620.897080,0.000000,0.000000,10495.508323
69620.897391,148.041188,0.000000,10342.289223
69620.897702,0.000000,0.000000,10265.679673
69620.898013,0.000000,0.000000,10265.679673
69620.898324,0.000000,0.000000,10342.289223
69620.898635,0.000000,74.020594,10265.679673
69620.898946,296.082377,222.061783,10112.460574
69620.899257,0.000000,-222.061783,10342.289223
69620.899568,0.000000,148.041188,9806.022374
69620.899879,-222.061783,296.082377,9806.022374
69620.900190,222.061783,0.000000,10112.460574
69620.900501,296.082377,0.000000,10265.679673
69620.900812,296.082377,0.000000,10035.851024
69620.901123,0.000000,-148.041188,10265.679673
69620.901434,0.000000,-222.061783,10418.898773
69620.901745,518.144159,74.020594,10725.336972
69620.902056,592.164754,0.000000,10035.851024
69620.902367,74.020594,-148.041188,9729.412825
69620.902678,296.082377,-592.164754,9959.241474
69620.902989,0.000000,0.000000,10112.460574
69620.903300,148.041188,296.082377,10418.898773
69620.903611,222.061783,0.000000,10418.898773
69620.903922,0.000000,0.000000,10418.898773
69620.904233,0.000000,0.000000,10342.289223
69620.904544,0.000000,74.020594,10495.508323
69620.904855,74.020594,0.000000,10572.117872
69620.905166,148.041188,-222.061783,10342.289223
69620.905477,296.082377,0.000000,10495.508323
69620.905788,0.000000,0.000000,10112.460574
69620.906099,370.102971,296.082377,10648.727422
69620.906410,74.020594,148.041188,10189.070123
69620.906721,148.041188,0.000000,10342.289223
69620.907032,0.000000,0.000000,10418.898773
69620.907343,0.000000,0.000000,10418.898773
69620.907654,222.061783,0.000000,10035.851024
69620.907965,74.020594,0.000000,10112.460574
69620.908276,0.000000,0.000000,10342.289223
69620.908587,-222.061783,-148.041188,10495.508323
69620.908898,444.123565,296.082377,10495.508323
69620.909209,-74.020594,-370.102971,10725.336972
69620.909520,0.000000,-370.102971,9576.193725
69620.909831,222.061783,-222.061783,10112.460574
69620.910142,-148.041188,0.000000,10418.898773
69620.910453,148.041188,0.000000,10112.460574
69620.910764,296.082377,0.000000,10112.460574
69620.911075,74.020594,0.000000,10035.851024
69620.911386,-148.041188,0.000000,10495.508323
69620.911697,370.102971,-148.041188,10955.165621
69620.912008,148.041188,296.082377,10572.117872
69620.912319,0.000000,296.082377,9806.022374
69620.912630,148.041188,74.020594,10112.460574
69620.912941,-222.061783,-148.041188,10495.508323
69620.913252,0.000000,0.000000,10495.508323
69620.913563,0.000000,148.041188,10342.289223
69620.913874,0.000000,0.000000,10035.851024
69620.914185,0.000000,-370.102971,10955.165621
69620.914496,148.041188,222.061783,10648.727422
69620.914807,-148.041188,592.164754,9729.412825
69620.915118,296.082377,-74.020594,10342.289223
69620.915429,444.123565,222.061783,10648.727422
69620.915740,74.020594,0.000000,10572.117872
69620.916051,0.000000,296.082377,10801.946522
69620.916362,148.041188,0.000000,10189.070123
69620.916673,148.041188,0.000000,10112.460574
69620.916984,0.000000,0.000000,10418.898773
69620.917295,-222.061783,0.000000,10112.460574
69620.917606,-444.123565,148.041188,10265.679673
69620.917917,-296.082377,74.020594,10035.851024
69620.918228,0.000000,518.144159,9729.412825
69620.918539,148.041188,-148.041188,9959.241474
69620.918850,-296.082377,0.000000,10418.898773
69620.919161,0.000000,74.020594,10495.508323
69620.919472,0.000000,148.041188,10342.289223
69620.919783,0.000000,0.000000,10418.898773
69620.920094,-148.041188,0.000000,10189.070123
69620.920405,370.102971,-148.041188,10725.336972
69620.920716,444.123565,74.020594,10648.727422
69620.921027,-592.164754,-222.061783,10112.460574
69620.921338,148.041188,0.000000,10418.898773
69620.921649,-148.041188,296.082377,10418.898773
69620.921960,-148.041188,74.020594,10265.679673
69620.922271,0.000000,0.000000,10265.679673
69620.922582,-296.082377,0.000000,10265.679673
69620.922893,0.000000,0.000000,10112.460574
69620.923204,222.061783,0.000000,9882.631924
69620.923515,148.041188,0.000000,10265.679673
69620.923826,0.000000,0.000000,10418.898773
69620.924137,0.000000,74.020594,10265.679673
69620.924448,296.082377,0.000000,10955.165621
69620.924759,-296.082377,0.000000,10495.508323
69620.925070,74.020594,-444.123565,10801.946522
69620.925381,444.123565,-296.082377,9882.631924
69620.925692,222.061783,148.041188,10189.070123
69620.926003,444.123565,-148.041188,10418.898773
69620.926314,0.000000,0.000000,10342.289223
69620.926626,0.000000,0.000000,10342.289223
69620.926937,0.000000,74.020594,10112.460574
69620.927248,0.000000,0.000000,10572.117872
69620.927559,0.000000,296.082377,10495.508323
69620.927870,74.020594,0.000000,10265.679673
69620.928181,370.102971,-222.061783,10955.165621
69620.928492,296.082377,0.000000,10112.460574
69620.928803,0.000000,0.000000,10801.946522
69620.929114,0.000000,74.020594,10572.117872
69620.929425,148.041188,296.082377,10265.679673
69620.929736,0.000000,0.000000,9959.241474
69620.930047,0.000000,0.000000,10418.898773
69620.930358,148.041188,74.020594,10878.556072
69620.930669,74.020594,0.000000,10418.898773
69620.930980,296.082377,0.000000,10495.508323
69620.931291,0.000000,0.000000,10265.679673
69620.931602,296.082377,-296.082377,10342.289223
69620.931913,74.020594,0.000000,10342.289223
69620.932224,74.020594,0.000000,10265.679673
69620.932535,74.020594,-148.041188,10265.679673
69620.932846,0.000000,-148.041188,10648.727422
69620.933157,74.020594,222.061783,11108.384721
69620.933468,-370.102971,-74.020594,9806.022374
69620.933779,-444.123565,-296.082377,10342.289223
69620.934090,0.000000,-222.061783,10189.070123
69620.934401,0.000000,0.000000,9806.022374
69620.934712,-148.041188,0.000000,10495.508323
69620.935023,0.000000,0.000000,10035.851024
69620.935333,296.082377,0.000000,10342.289223
69620.935644,296.082377,0.000000,10189.070123
69620.935955,0.000000,74.020594,10112.460574
69620.936266,888.247130,-296.082377,10725.336972
69620.936577,74.020594,592.164754,10495.508323
69620.936888,0.000000,-370.102971,10112.460574
69620.937199,0.000000,0.000000,10189.070123
69620.937509,-296.082377,0.000000,10495.508323
69620.937820,74.020594,0.000000,10495.508323
69620.938131,444.123565,148.041188,10725.336972
69620.938442,0.000000,-222.061783,10342.289223
69620.938753,74.020594,0.000000,10955.165621
69620.939064,370.102971,222.061783,10189.070123
69620.939374,0.000000,0.000000,10189.070123
69620.939685,0.000000,-148.041188,10572.117872
69620.939996,148.041188,-148.041188,10342.289223
69620.940307,296.082377,-222.061783,10265.679673
69620.940618,0.000000,74.020594,10418.898773
69620.940929,0.000000,0.000000,10955.165621
69620.941240,0.000000,0.000000,10418.898773
69620.941550,74.020594,-222.061783,11031.775171
69620.941861,0.000000,0.000000,10265.679673
69620.942172,0.000000,-222.061783,9959.241474
69620.942483,0.000000,0.000000,10342.289223
69620.942794,0.000000,0.000000,10265.679673
69620.943105,0.000000,0.000000,10112.460574
69620.943416,666.185348,-592.164754,10035.851024
69620.943726,0.000000,-296.082377,9806.022374
69620.944037,0.000000,0.000000,10189.070123
69620.944348,0.000000,0.000000,10801.946522
69620.944659,0.000000,0.000000,10648.727422
69620.944970,148.041188,0.000000,10265.679673
69620.945281,222.061783,0.000000,10495.508323
69620.945592,0.000000,0.000000,10112.460574
69620.945902,444.123565,0.000000,10112.460574
69620.946213,-222.061783,296.082377,10035.851024
69620.946524,-74.020594,222.061783,10035.851024
69620.946835,74.020594,0.000000,10189.070123
69620.947146,74.020594,-222.061783,10112.460574
69620.947457,-148.041188,0.000000,10112.460574
69620.947768,0.000000,74.020594,10342.289223
69620.948078,0.000000,0.000000,10418.898773
69620.948389,74.020594,0.000000,10342.289223
69620.948700,-222.061783,0.000000,10418.898773
69620.949011,74.020594,222.061783,10418.898773
69620.949322,74.020594,296.082377,9729.412825
69620.949633,0.000000,592.164754,9882.631924
69620.949944,0.000000,74.020594,10418.898773
69620.950254,-148.041188,-148.041188,10265.679673
69620.950565,0.000000,0.000000,10418.898773
69620.950876,0.000000,-148.041188,10265.679673
69620.951187,148.041188,0.000000,10342.289223
69620.951498,370.102971,0.000000,10725.336972
69620.951809,0.000000,-814.226536,10725.336972
69620.952120,-74.020594,0.000000,10648.727422
69620.952430,-148.041188,0.000000,10265.679673
69620.952741,296.082377,-222.061783,10112.460574
69620.953052,0.000000,0.000000,10112.460574
69620.953363,0.000000,74.020594,10725.336972
69620.953674,0.000000,0.000000,10495.508323
69620.953985,74.020594,-148.041188,10342.289223
69620.954295,222.061783,74.020594,9499.584175
69620.954606,74.020594,296.082377,9959.241474
69620.954917,-296.082377,296.082377,9806.022374
69620.955228,148.041188,-370.102971,10495.508323
69620.955539,0.000000,0.000000,10189.070123
69620.955850,74.020594,148.041188,10265.679673
69620.956161,0.000000,-148.041188,10189.070123
69620.956471,0.000000,0.000000,10418.898773
69620.956782,0.000000,74.020594,10265.679673
69620.957093,370.102971,0.000000,9806.022374
69620.957404,222.061783,0.000000,10112.460574
69620.957715,74.020594,-148.041188,10342.289223
69620.958026,-148.041188,148.041188,10418.898773
69620.958337,0.000000,0.000000,10189.070123
69620.958647,592.164754,0.000000,9729.412825
69620.958958,-296.082377,148.041188,9959.241474
69620.959269,74.020594,0.000000,10418.898773
69620.959580,-296.082377,0.000000,10265.679673
69620.959891,0.000000,-222.061783,10495.508323
69620.960202,-148.041188,74.020594,9959.241474
69620.960513,222.061783,-148.041188,10112.460574
69620.960823,0.000000,0.000000,10265.679673
69620.961134,74.020594,0.000000,10189.070123
69620.961445,74.020594,0.000000,10342.289223
69620.961756,0.000000,592.164754,10189.070123
69620.962067,222.061783,-222.061783,10112.460574
69620.962378,-370.102971,-74.020594,10265.679673
69620.962689,-296.082377,74.020594,10495.508323
69620.962999,0.000000,-148.041188,9882.631924
69620.963310,74.020594,-222.061783,10265.679673
69620.963621,0.000000,74.020594,10342.289223
69620.963932,0.000000,0.000000,10342.289223
69620.964243,0.000000,74.020594,10801.946522
69620.964554,148.041188,148.041188,10572.117872
69620.964865,296.082377,-666.185348,10265.679673
69620.965175,592.164754,-592.164754,10648.727422
69620.965486,-148.041188,0.000000,10648.727422
69620.965797,0.000000,74.020594,10801.946522
69620.966108,222.061783,-222.061783,10265.679673
69620.966419,222.061783,0.000000,10112.460574
69620.966730,148.041188,0.000000,10112.460574
69620.967041,0.000000,0.000000,10495.508323
69620.967351,148.041188,0.000000,10495.508323
69620.967662,74.020594,0.000000,9806.022374
69620.967973,592.164754,296.082377,9806.022374
69620.968284,222.061783,-148.041188,10265.679673
69620.968595,0.000000,148.041188,10342.289223
69620.968906,74.020594,74.020594,10265.679673
69620.969216,74.020594,-222.061783,9959.241474
69620.969527,0.000000,0.000000,10189.070123
69620.969838,74.020594,0.000000,10189.070123
69620.970149,-666.185348,-518.144159,10418.898773
69620.970460,222.061783,74.020594,10495.508323
69620.970771,148.041188,666.185348,9806.022374
69620.971082,370.102971,-148.041188,10035.851024
69620.971392,148.041188,74.020594,10418.898773
69620.971703,74.020594,0.000000,10418.898773
69620.972014,74.020594,0.000000,10342.289223
69620.972325,0.000000,0.000000,10265.679673
69620.972636,0.000000,74.020594,10112.460574
69620.972947,-444.123565,0.000000,10189.070123
69620.973258,-148.041188,0.000000,10572.117872
69620.973568,0.000000,0.000000,10418.898773
69620.973879,0.000000,0.000000,10342.289223
69620.974190,222.061783,0.000000,10342.289223
69620.974501,370.102971,74.020594,9882.631924
69620.974812,0.000000,148.041188,10112.460574
69620.975123,148.041188,-666.185348,10495.508323
69620.975434,148.041188,-148.041188,10189.070123
69620.975744,370.102971,0.000000,10342.289223
69620.976055,0.000000,0.000000,10035.851024
69620.976366,-222.061783,222.061783,10418.898773
69620.976677,-148.041188,0.000000,10418.898773
69620.976988,0.000000,0.000000,10342.289223
69620.977299,148.041188,-222.061783,10878.556072
69620.977610,518.144159,0.000000,10418.898773
69620.977920,-222.061783,592.164754,10342.289223
69620.978231,0.000000,222.061783,10342.289223
69620.978542,666.185348,0.000000,9652.803275
69620.978853,370.102971,0.000000,10265.679673
69620.979164,148.041188,0.000000,9959.241474
69620.979475,0.000000,0.000000,10418.898773
69620.979786,296.082377,0.000000,10189.070123
69620.980096,0.000000,222.061783,10035.851024
69620.980407,-222.061783,-296.082377,10342.289223
69620.980718,-296.082377,0.000000,10725.336972
69620.981029,0.000000,0.000000,10418.898773
69620.981340,0.000000,592.164754,10035.851024
69620.981651,0.000000,74.020594,10342.289223
69620.981961,148.041188,0.000000,10418.898773
69620.982272,0.000000,0.000000,10418.898773
69620.982583,0.000000,148.041188,10418.898773
69620.982894,296.082377,-370.102971,10648.727422
69620.983205,222.061783,74.020594,9806.022374
69620.983516,296.082377,-296.082377,10418.898773
69620.983827,74.020594,-148.041188,10112.460574
69620.984137,0.000000,0.000000,10801.946522
69620.984448,222.061783,0.000000,10265.679673
69620.984759,0.000000,0.000000,10265.679673
69620.985070,0.000000,-296.082377,10418.898773
69620.985381,0.000000,0.000000,10265.679673
69620.985692,370.102971,-148.041188,10418.898773
69620.986003,-296.082377,0.000000,10342.289223
69620.986313,-222.061783,0.000000,10342.289223
69620.986624,296.082377,148.041188,10035.851024
69620.986935,74.020594,0.000000,10342.289223
69620.987246,148.041188,0.000000,10112.460574
69620.987557,0.000000,0.000000,10035.851024
69620.987868,0.000000,0.000000,10418.898773
69620.988179,0.000000,0.000000,10342.289223
69620.988489,148.041188,0.000000,10035.851024
69620.988800,74.020594,0.000000,10189.070123
69620.989111,0.000000,0.000000,10342.289223
69620.989422,74.020594,0.000000,10342.289223
69620.989733,0.000000,74.020594,10572.117872
69620.990044,222.061783,74.020594,10189.070123
69620.990355,0.000000,74.020594,9806.022374
69620.990665,148.041188,-666.185348,10265.679673
69620.990976,74.020594,-148.041188,10112.460574
69620.991287,74.020594,222.061783,10495.508323
69620.991598,74.020594,0.000000,10495.508323
69620.991909,74.020594,-148.041188,10189.070123
69620.992220,0.000000,0.000000,10112.460574
69620.992531,222.061783,0.000000,9882.631924
69620.992841,0.000000,592.164754,9806.022374
69620.993152,-296.082377,0.000000,10342.289223
69620.993463,222.061783,-518.144159,10648.727422
69620.993774,-148.041188,-148.041188,10265.679673
69620.994085,0.000000,0.000000,10189.070123
69620.994396,0.000000,148.041188,10035.851024
69620.994707,148.041188,74.020594,10265.679673
69620.995017,0.000000,0.000000,10418.898773
69620.995328,0.000000,0.000000,10418.898773
69620.995639,666.185348,0.000000,10342.289223
69620.995950,0.000000,148.041188,9959.241474
69620.996261,518.144159,296.082377,10035.851024
69620.996572,-222.061783,0.000000,10418.898773
69620.996882,0.000000,0.000000,10495.508323
69620.997193,148.041188,0.000000,10418.898773
69620.997504,0.000000,-148.041188,10035.851024
69620.997815,0.000000,0.000000,10418.898773
69620.998126,0.000000,222.061783,10189.070123
69620.998437,74.020594,444.123565,10725.336972
69620.998748,-222.061783,148.041188,10342.289223
69620.999058,-74.020594,0.000000,9959.241474
69620.999369,296.082377,0.000000,10189.070123
69620.999680,74.020594,0.000000,10418.898773
69620.999991,-148.041188,0.000000,10495.508323
69621.000302,0.000000,-148.041188,10265.679673
69621.000613,148.041188,0.000000,10112.460574
69621.000924,148.041188,0.000000,10265.679673
69621.001234,0.000000,0.000000,9959.241474
69621.001545,-444.123565,296.082377,10725.336972
69621.001856,0.000000,444.123565,10342.289223
69621.002167,888.247130,0.000000,10648.727422
69621.002478,0.000000,0.000000,10265.679673
69621.002789,0.000000,0.000000,10342.289223
69621.003100,222.061783,0.000000,10342.289223
69621.003410,0.000000,148.041188,10342.289223
69621.003721,148.041188,222.061783,10189.070123
69621.004032,222.061783,0.000000,10648.727422
69621.004343,-370.102971,222.061783,10572.117872
69621.004654,0.000000,0.000000,10035.851024
69621.004965,0.000000,-148.041188,10112.460574
69621.005276,0.000000,-148.041188,10189.070123
69621.005586,-296.082377,0.000000,11031.775171
69621.005897,74.020594,0.000000,10265.679673
69621.006208,0.000000,-148.041188,10035.851024
69621.006519,222.061783,0.000000,10265.679673
69621.006830,148.041188,148.041188,10342.289223
69621.007141,296.082377,148.041188,10342.289223
69621.007452,0.000000,-148.041188,10342.289223
69621.007762,0.000000,0.000000,10112.460574
69621.008073,-296.082377,148.041188,10418.898773
69621.008384,0.000000,222.061783,10955.165621
69621.008695,0.000000,222.061783,11338.213370
69621.009006,-296.082377,0.000000,10035.851024
69621.009317,-222.061783,0.000000,10495.508323
69621.009628,0.000000,0.000000,10112.460574
69621.009938,148.041188,148.041188,10035.851024
69621.010249,148.041188,0.000000,10189.070123
69621.010560,0.000000,0.000000,10265.679673
69621.010871,0.000000,74.020594,10418.898773
69621.011182,74.020594,666.185348,10112.460574
69621.011493,-370.102971,0.000000,10112.460574
69621.011803,0.000000,0.000000,10112.460574
69621.012114,0.000000,222.061783,9959.241474
69621.012425,0.000000,74.020594,10418.898773
69621.012736,0.000000,0.000000,10418.898773
69621.013047,222.061783,0.000000,10342.289223
69621.013358,222.061783,-222.061783,10035.851024
69621.013669,0.000000,74.020594,9806.022374
69621.013979,148.041188,0.000000,10801.946522
69621.014290,-518.144159,-74.020594,11031.775171
69621.014601,74.020594,-74.020594,9806.022374
69621.014912,0.000000,0.000000,9806.022374
69621.015223,0.000000,-296.082377,10418.898773
69621.015534,0.000000,74.020594,10878.556072
69621.015845,0.000000,148.041188,10342.289223
69621.016155,148.041188,0.000000,10342.289223
69621.016466,0.000000,0.000000,10035.851024
69621.016777,74.020594,0.000000,10265.679673
69621.017088,-222.061783,740.205942,10112.460574
69621.017399,518.144159,-370.102971,11184.994271
69621.017710,0.000000,0.000000,9959.241474
69621.018021,-222.061783,0.000000,10265.679673
69621.018331,222.061783,222.061783,10572.117872
69621.018642,222.061783,0.000000,10189.070123
69621.018953,-222.061783,0.000000,10418.898773
69621.019264,0.000000,0.000000,10495.508323
69621.019575,296.082377,0.000000,10418.898773
69621.019886,0.000000,0.000000,10035.851024
69621.020197,0.000000,-222.061783,10265.679673
69621.020507,0.000000,296.082377,10035.851024
69621.020818,296.082377,74.020594,10112.460574
69621.021129,148.041188,0.000000,9959.241474
69621.021440,0.000000,-148.041188,10418.898773
69621.021751,0.000000,0.000000,10342.289223
69621.022062,0.000000,0.000000,10342.289223
69621.022373,74.020594,0.000000,10189.070123
69621.022683,0.000000,222.061783,10418.898773
69621.022994,-148.041188,-148.041188,10189.070123
69621.023305,148.041188,148.041188,10189.070123
69621.023616,222.061783,148.041188,9959.241474
69621.023927,296.082377,-370.102971,10189.070123
69621.024238,0.000000,0.000000,10801.946522
69621.024549,222.061783,666.185348,10572.117872
69621.024859,592.164754,-74.020594,9806.022374
69621.025170,0.000000,0.000000,10418.898773
69621.025481,-222.061783,-222.061783,10572.117872
69621.025792,-148.041188,74.020594,10648.727422
69621.026103,0.000000,74.020594,10418.898773
69621.026414,-148.041188,-296.082377,10265.679673
69621.026724,0.000000,-296.082377,10495.508323
69621.027035,222.061783,-296.082377,10112.460574
69621.027346,296.082377,296.082377,11261.603821
69621.027657,0.000000,222.061783,10189.070123
69621.027968,74.020594,74.020594,10189.070123
69621.028279,296.082377,74.020594,10648.727422
69621.028590,0.000000,74.020594,10342.289223
69621.028900,0.000000,0.000000,10418.898773
69621.029211,0.000000,0.000000,10495.508323
69621.029522,0.000000,0.000000,10342.289223
69621.029833,0.000000,-370.102971,10648.727422
69621.030144,-74.020594,-592.164754,10035.851024
69621.030455,74.020594,0.000000,10112.460574
69621.030766,74.020594,0.000000,10495.508323
69621.031076,74.020594,0.000000,10495.508323
69621.031387,0.000000,0.000000,10265.679673
69621.031698,-148.041188,0.000000,10418.898773
69621.032009,0.000000,148.041188,10342.289223
69621.032320,222.061783,0.000000,10495.508323
69621.032631,-444.123565,0.000000,10342.289223
69621.032942,0.000000,0.000000,9806.022374
69621.033252,-296.082377,0.000000,10648.727422
69621.033563,0.000000,0.000000,10265.679673
69621.033874,-148.041188,0.000000,10342.289223
69621.034185,148.041188,0.000000,10342.289223
69621.034496,0.000000,-148.041188,10495.508323
69621.034807,148.041188,0.000000,10265.679673
69621.035118,296.082377,0.000000,10112.460574
69621.035428,74.020594,0.000000,10801.946522
69621.035739,296.082377,296.082377,10648.727422
69621.036050,444.123565,0.000000,10342.289223
69621.036361,0.000000,296.082377,10112.460574
69621.036672,74.020594,0.000000,10112.460574
69621.036983,-148.041188,74.020594,10035.851024
69621.037294,0.000000,148.041188,10189.070123
69621.037604,0.000000,0.000000,10265.679673
69621.037915,0.000000,0.000000,10725.336972
69621.038226,148.041188,-518.144159,10878.556072
69621.038537,0.000000,0.000000,10342.289223
69621.038848,444.123565,0.000000,10112.460574
69621.039159,0.000000,148.041188,10035.851024
69621.039469,518.144159,-370.102971,10342.289223
69621.039780,518.144159,-666.185348,10112.460574
69621.040091,74.020594,0.000000,10112.460574
69621.040402,0.000000,0.000000,10265.679673
69621.040713,0.000000,0.000000,10648.727422
69621.041024,222.061783,-370.102971,10495.508323
69621.041335,222.061783,0.000000,10112.460574
69621.041645,0.000000,0.000000,10342.289223
69621.041956,0.000000,0.000000,10189.070123
69621.042267,0.000000,148.041188,10265.679673
69621.042578,814.226536,444.123565,10725.336972
69621.042889,296.082377,-74.020594,9959.241474
69621.043200,-148.041188,296.082377,10572.117872
69621.043511,-222.061783,222.061783,10342.289223
69621.043821,0.000000,0.000000,10342.289223
69621.044132,0.000000,0.000000,10342.289223
69621.044443,0.000000,0.000000,9959.241474
69621.044754,0.000000,0.000000,10265.679673
69621.045065,0.000000,0.000000,10572.117872
69621.045376,444.123565,0.000000,10265.679673
69621.045686,74.020594,-222.061783,10648.727422
69621.045997,222.061783,74.020594,10418.898773
69621.046308,74.020594,-148.041188,10342.289223
69621.046619,74.020594,0.000000,10342.289223
69621.046930,-222.061783,74.020594,10418.898773
69621.047241,0.000000,0.000000,10035.851024
69621.047552,0.000000,222.061783,10342.289223
69621.047862,0.000000,0.000000,10112.460574
69621.048173,0.000000,74.020594,10955.165621
69621.048484,0.000000,0.000000,10112.460574
69621.048795,74.020594,0.000000,10955.165621
69621.049106,518.144159,-814.226536,10112.460574
69621.049417,0.000000,-148.041188,10265.679673
69621.049728,0.000000,-148.041188,10495.508323
69621.050038,0.000000,0.000000,10342.289223
69621.050349,222.061783,0.000000,10265.679673
69621.050660,0.000000,0.000000,10265.679673
69621.050971,74.020594,0.000000,11031.775171
69621.051282,0.000000,-148.041188,10342.289223
69621.051593,-444.123565,0.000000,10342.289223
69621.051904,518.144159,-296.082377,10342.289223
69621.052214,0.000000,0.000000,10342.289223
69621.052525,-296.082377,370.102971,10725.336972
69621.052836,0.000000,0.000000,10265.679673
69621.053147,0.000000,0.000000,10418.898773
69621.053458,148.041188,0.000000,10189.070123
69621.053769,222.061783,222.061783,10189.070123
69621.054079,-74.020594,0.000000,10035.851024
69621.054390,0.000000,-296.082377,11184.994271
69621.054701,0.000000,444.123565,10112.460574
69621.055012,74.020594,74.020594,10035.851024
69621.055323,222.061783,-370.102971,9806.022374
69621.055634,0.000000,-148.041188,10342.289223
69621.055945,0.000000,0.000000,10418.898773
69621.056255,0.000000,148.041188,10418.898773
69621.056566,0.000000,0.000000,10265.679673
69621.056877,0.000000,-148.041188,10418.898773
69621.057188,0.000000,0.000000,10418.898773
69621.057499,74.020594,0.000000,10342.289223
69621.057810,148.041188,74.020594,10265.679673
69621.058121,-370.102971,666.185348,9422.974625
69621.058431,222.061783,-148.041188,9806.022374
69621.058742,74.020594,0.000000,10342.289223
69621.059053,296.082377,222.061783,10878.556072
69621.059364,-148.041188,0.000000,10189.070123
69621.059675,296.082377,0.000000,9882.631924
69621.059986,0.000000,0.000000,10189.070123
69621.060297,0.000000,0.000000,10418.898773
69621.060607,0.000000,74.020594,10342.289223
69621.060918,444.123565,0.000000,10265.679673
69621.061229,222.061783,148.041188,10342.289223
69621.061540,0.000000,74.020594,10572.117872
69621.061851,222.061783,-296.082377,10035.851024
69621.062162,0.000000,0.000000,10265.679673
69621.062472,444.123565,296.082377,10112.460574
69621.062783,0.000000,148.041188,10189.070123
69621.063094,0.000000,0.000000,10342.289223
69621.063405,0.000000,-148.041188,10265.679673
69621.063716,74.020594,74.020594,10189.070123
69621.064027,222.061783,148.041188,10265.679673
69621.064338,222.061783,0.000000,10878.556072
69621.064648,0.000000,-296.082377,10725.336972
69621.064959,0.000000,0.000000,10342.289223
69621.065270,0.000000,0.000000,10495.508323
69621.065581,0.000000,-222.061783,10495.508323
69621.065892,0.000000,0.000000,10342.289223
69621.066203,0.000000,74.020594,10189.070123
69621.066514,0.000000,0.000000,10342.289223
69621.066824,-296.082377,148.041188,10112.460574
69621.067135,-222.061783,0.000000,10035.851024
69621.067446,296.082377,74.020594,10648.727422
69621.067757,222.061783,-222.061783,10342.289223
69621.068068,222.061783,-296.082377,10955.165621
69621.068379,0.000000,-148.041188,10189.070123
69621.068689,296.082377,74.020594,10265.679673
69621.069000,0.000000,222.061783,10342.289223
69621.069311,0.000000,0.000000,10418.898773
69621.069622,296.082377,-74.020594,10189.070123
69621.069933,-518.144159,0.000000,10648.727422
69621.070244,296.082377,0.000000,10265.679673
69621.070555,0.000000,0.000000,10035.851024
69621.070865,0.000000,0.000000,10878.556072
69621.071176,0.000000,148.041188,10112.460574
69621.071487,0.000000,0.000000,10495.508323
69621.071798,-296.082377,0.000000,10495.508323
69621.072109,296.082377,0.000000,10112.460574
69621.072420,740.205942,74.020594,9959.241474
69621.072731,0.000000,222.061783,10648.727422
69621.073041,0.000000,0.000000,10418.898773
69621.073352,0.000000,0.000000,10265.679673
69621.073663,148.041188,0.000000,10495.508323
69621.073974,0.000000,-296.082377,10418.898773
69621.074285,0.000000,-296.082377,10265.679673
69621.074596,0.000000,0.000000,10342.289223
69621.074907,74.020594,0.000000,10265.679673
69621.075217,148.041188,296.082377,10495.508323
69621.075528,74.020594,74.020594,10265.679673
69621.075839,-148.041188,0.000000,10342.289223
69621.076150,0.000000,-148.041188,10265.679673
69621.076461,222.061783,74.020594,10265.679673
69621.076772,296.082377,74.020594,9729.412825
69621.077082,-222.061783,-666.185348,10112.460574
69621.077393,74.020594,-222.061783,10572.117872
69621.077704,0.000000,148.041188,9959.241474
69621.078015,-222.061783,74.020594,10342.289223
69621.078326,74.020594,0.000000,10112.460574
69621.078637,74.020594,0.000000,10189.070123
69621.078948,0.000000,222.061783,10265.679673
69621.079258,0.000000,0.000000,10418.898773
69621.079569,0.000000,0.000000,10112.460574
69621.079880,148.041188,-370.102971,10265.679673
69621.080191,-592.164754,592.164754,10035.851024
69621.080502,0.000000,74.020594,10035.851024
69621.080813,74.020594,0.000000,9806.022374
69621.081124,0.000000,148.041188,10265.679673
69621.081434,74.020594,0.000000,10112.460574
69621.081745,74.020594,0.000000,10418.898773
69621.082056,-222.061783,0.000000,10342.289223
69621.082367,444.123565,-74.020594,10035.851024
69621.082678,74.020594,0.000000,10342.289223
69621.082989,0.000000,0.000000,10265.679673
69621.083299,0.000000,-148.041188,10495.508323
69621.083610,0.000000,0.000000,10189.070123
69621.083921,0.000000,0.000000,10189.070123
69621.084232,148.041188,74.020594,10495.508323
69621.084543,74.020594,0.000000,10189.070123
69621.084854,-222.061783,0.000000,10265.679673
69621.085165,296.082377,222.061783,10265.679673
69621.085475,518.144159,0.000000,10342.289223
69621.085786,74.020594,0.000000,10418.898773
69621.086097,0.000000,0.000000,10725.336972
69621.086408,0.000000,148.041188,10189.070123
69621.086719,0.000000,222.061783,10342.289223
69621.087030,0.000000,0.000000,10495.508323
69621.087341,74.020594,0.000000,10342.289223
69621.087651,370.102971,74.020594,10112.460574
69621.087962,0.000000,148.041188,10189.070123
69621.088273,-296.082377,0.000000,9882.631924
69621.088584,0.000000,-148.041188,9959.241474
69621.088895,148.041188,0.000000,9652.803275
69621.089206,444.123565,0.000000,10035.851024
69621.089517,0.000000,0.000000,10878.556072
69621.089827,-370.102971,-222.061783,10495.508323
69621.090138,0.000000,74.020594,10418.898773
69621.090449,74.020594,444.123565,10035.851024
69621.090760,74.020594,0.000000,10112.460574
69621.091071,0.000000,0.000000,10265.679673
69621.091382,0.000000,74.020594,10418.898773
69621.091692,222.061783,148.041188,10189.070123
69621.092003,222.061783,0.000000,10035.851024
69621.092314,0.000000,0.000000,10418.898773
69621.092625,518.144159,-666.185348,10418.898773
69621.092936,148.041188,518.144159,9959.241474
69621.093247,-148.041188,0.000000,10265.679673
69621.093558,0.000000,0.000000,10801.946522
69621.093868,0.000000,0.000000,10112.460574
69621.094179,-296.082377,0.000000,10418.898773
69621.094490,0.000000,0.000000,10495.508323
69621.094801,0.000000,0.000000,10189.070123
69621.095112,296.082377,592.164754,10112.460574
69621.095423,222.061783,296.082377,10648.727422
69621.095734,74.020594,296.082377,10112.460574
69621.096044,-148.041188,74.020594,10342.289223
69621.096355,148.041188,0.000000,10112.460574
69621.096666,222.061783,148.041188,10265.679673
69621.096977,222.061783,0.000000,10265.679673
69621.097288,-296.082377,-148.041188,10342.289223
69621.097599,-444.123565,0.000000,10112.460574
69621.097909,-222.061783,296.082377,10725.336972
69621.098220,-444.123565,148.041188,10112.460574
69621.098531,0.000000,222.061783,10035.851024
69621.098842,-518.144159,0.000000,10725.336972
69621.099153,0.000000,0.000000,10112.460574
69621.099464,0.000000,148.041188,10265.679673
69621.099775,740.205942,0.000000,10189.070123
69621.100085,74.020594,-222.061783,10495.508323
69621.100396,0.000000,-148.041188,10572.117872
69621.100707,0.000000,0.000000,10648.727422
69621.101018,148.041188,0.000000,9729.412825
69621.101329,370.102971,0.000000,10112.460574
69621.101640,-296.082377,-296.082377,10418.898773
69621.101951,-592.164754,0.000000,10572.117872
69621.102261,-296.082377,148.041188,10801.946522
69621.102572,148.041188,-148.041188,10189.070123
69621.102883,0.000000,0.000000,10265.679673
69621.103194,222.061783,0.000000,10342.289223
69621.103505,148.041188,0.000000,10189.070123
69621.103816,592.164754,0.000000,10418.898773
69621.104127,-148.041188,0.000000,10035.851024
69621.104437,148.041188,-74.020594,10265.679673
69621.104748,0.000000,0.000000,10648.727422
69621.105059,-592.164754,148.041188,11261.603821
69621.105370,-296.082377,0.000000,10342.289223
69621.105681,0.000000,-148.041188,10265.679673
69621.105992,0.000000,0.000000,10495.508323
69621.106302,74.020594,74.020594,10112.460574
69621.106613,370.102971,0.000000,10265.679673
69621.106924,0.000000,-370.102971,10418.898773
69621.107235,370.102971,0.000000,10112.460574
69621.107546,592.164754,148.041188,10189.070123
69621.107857,222.061783,74.020594,10342.289223
69621.108168,-592.164754,-74.020594,10265.679673
69621.108478,222.061783,296.082377,10418.898773
69621.108789,0.000000,74.020594,10342.289223
69621.109100,-222.061783,-222.061783,10265.679673
69621.109411,-148.041188,296.082377,10035.851024
69621.109722,0.000000,-222.061783,10495.508323
69621.110033,0.000000,74.020594,10418.898773
69621.110344,370.102971,74.020594,10189.070123
69621.110654,296.082377,0.000000,9576.193725
69621.110965,-148.041188,0.000000,10265.679673
69621.111276,0.000000,74.020594,10189.070123
69621.111587,222.061783,222.061783,10495.508323
69621.111898,-148.041188,-370.102971,10265.679673
69621.112209,0.000000,0.000000,10265.679673
69621.112519,-296.082377,296.082377,10189.070123
69621.112830,-296.082377,0.000000,10572.117872
69621.113141,-222.061783,0.000000,10418.898773
69621.113452,-148.041188,0.000000,10878.556072
69621.113763,148.041188,222.061783,10495.508323
69621.114074,0.000000,0.000000,9882.631924
69621.114385,74.020594,148.041188,10035.851024
69621.114695,444.123565,0.000000,10265.679673
69621.115006,296.082377,-296.082377,11338.213370
69621.115317,222.061783,0.000000,10495.508323
69621.115628,0.000000,0.000000,10265.679673
69621.115939,0.000000,0.000000,10265.679673
69621.116250,74.020594,0.000000,10418.898773
69621.116561,-296.082377,0.000000,10418.898773
69621.116871,148.041188,74.020594,9959.241474
69621.117182,0.000000,74.020594,10418.898773
69621.117493,0.000000,74.020594,10035.851024
69621.117804,222.061783,148.041188,10035.851024
69621.118115,148.041188,0.000000,10189.070123
69621.118426,0.000000,0.000000,10189.070123
69621.118737,0.000000,0.000000,10265.679673
69621.119047,0.000000,0.000000,10418.898773
69621.119358,0.000000,0.000000,10418.898773
69621.119669,0.000000,0.000000,10189.070123
69621.119980,-74.020594,-444.123565,9806.022374
69621.120291,222.061783,0.000000,10495.508323
69621.120602,148.041188,222.061783,10801.946522
69621.120912,148.041188,0.000000,10495.508323
69621.121223,0.000000,-222.061783,10342.289223
69621.121534,444.123565,0.000000,9959.241474
69621.121845,148.041188,0.000000,9959.241474
69621.122156,74.020594,296.082377,10418.898773
69621.122467,74.020594,0.000000,10112.460574
69621.122778,222.061783,74.020594,10112.460574
69621.123088,148.041188,0.000000,10189.070123
69621.123399,-296.082377,74.020594,10495.508323
69621.123710,-296.082377,222.061783,10955.165621
69621.124021,0.000000,148.041188,10878.556072
69621.124332,0.000000,148.041188,10342.289223
69621.124643,0.000000,0.000000,10265.679673
69621.124954,-222.061783,0.000000,10572.117872
69621.125264,148.041188,0.000000,10189.070123
69621.125575,148.041188,0.000000,10342.289223
69621.125886,0.000000,74.020594,10189.070123
69621.126197,148.041188,-222.061783,10112.460574
69621.126508,-148.041188,0.000000,10035.851024
69621.126819,-370.102971,740.205942,10495.508323
69621.127129,0.000000,296.082377,10035.851024
69621.127440,0.000000,0.000000,10342.289223
69621.127751,0.000000,74.020594,10495.508323
69621.128062,-222.061783,74.020594,10495.508323
69621.128373,74.020594,0.000000,10265.679673
69621.128684,74.020594,-148.041188,10189.070123
69621.128995,222.061783,0.000000,10112.460574
69621.129305,74.020594,0.000000,9652.803275
69621.129616,222.061783,148.041188,9806.022374
69621.129927,-74.020594,370.102971,10495.508323
69621.130238,222.061783,0.000000,10112.460574
69621.130549,74.020594,-222.061783,9652.803275
69621.130860,-148.041188,-296.082377,10189.070123
69621.131171,0.000000,0.000000,10342.289223
69621.131481,-296.082377,74.020594,10648.727422
69621.131792,0.000000,0.000000,10418.898773
69621.132103,444.123565,0.000000,9729.412825
69621.132414,518.144159,0.000000,9806.022374
69621.132725,-296.082377,-148.041188,10418.898773
69621.133036,0.000000,-148.041188,10265.679673
69621.133347,148.041188,0.000000,10418.898773
69621.133657,0.000000,-222.061783,10189.070123
69621.133968,74.020594,0.000000,10265.679673
69621.134279,0.000000,0.000000,10035.851024
69621.134590,0.000000,-148.041188,10418.898773
69621.134901,296.082377,0.000000,11031.775171
69621.135212,222.061783,-370.102971,10342.289223
69621.135522,296.082377,0.000000,9652.803275
69621.135833,444.123565,74.020594,9269.755526
69621.136144,0.000000,74.020594,10265.679673
69621.136455,-222.061783,148.041188,10572.117872
69621.136766,148.041188,0.000000,10189.070123
69621.137077,222.061783,0.000000,10112.460574
69621.137388,0.000000,0.000000,10265.679673
69621.137699,0.000000,-222.061783,11031.775171
69621.138010,0.000000,0.000000,10648.727422
69621.138321,0.000000,-74.020594,10495.508323
69621.138632,370.102971,-222.061783,10035.851024
69621.138943,74.020594,0.000000,10495.508323
69621.139254,0.000000,0.000000,10955.165621
69621.139565,148.041188,0.000000,10265.679673
69621.139876,296.082377,0.000000,10342.289223
69621.140187,0.000000,0.000000,10265.679673
69621.140498,0.000000,74.020594,11108.384721
69621.140809,74.020594,0.000000,10648.727422
69621.141120,74.020594,0.000000,10342.289223
69621.141431,148.041188,0.000000,10112.460574
69621.141742,0.000000,0.000000,10495.508323
69621.142053,74.020594,-296.082377,10112.460574
69621.142364,0.000000,-74.020594,10418.898773
69621.142675,740.205942,74.020594,11108.384721
69621.142986,74.020594,0.000000,10342.289223
69621.143298,-222.061783,-296.082377,10342.289223
69621.143609,0.000000,0.000000,10342.289223
69621.143920,0.000000,0.000000,10189.070123
69621.144231,0.000000,0.000000,10342.289223
69621.144542,222.061783,0.000000,10189.070123
69621.144853,592.164754,0.000000,10725.336972
69621.145164,-222.061783,-148.041188,10648.727422
69621.145475,74.020594,0.000000,10189.070123
69621.145786,0.000000,74.020594,10035.851024
69621.146097,0.000000,0.000000,10112.460574
69621.146408,-222.061783,0.000000,10648.727422
69621.146719,0.000000,0.000000,10418.898773
69621.147030,0.000000,0.000000,9959.241474
69621.147341,444.123565,-222.061783,10035.851024
69621.147652,-222.061783,222.061783,10648.727422
69621.147963,-148.041188,518.144159,10342.289223
69621.148274,-370.102971,0.000000,10035.851024
69621.148585,296.082377,0.000000,9806.022374
69621.148896,74.020594,-148.041188,10342.289223
69621.149207,0.000000,0.000000,10648.727422
69621.149518,-296.082377,-74.020594,10648.727422
69621.149829,74.020594,0.000000,10189.070123
69621.150140,74.020594,0.000000,10342.289223
69621.150451,222.061783,0.000000,10265.679673
69621.150762,444.123565,-296.082377,10112.460574
69621.151073,296.082377,0.000000,10725.336972
69621.151385,0.000000,0.000000,10035.851024
69621.151696,74.020594,0.000000,10035.851024
69621.152007,74.020594,-222.061783,10035.851024
69621.152318,0.000000,0.000000,10342.289223
69621.152629,0.000000,148.041188,10418.898773
69621.152940,0.000000,0.000000,10189.070123
69621.153251,0.000000,0.000000,10495.508323
69621.153562,74.020594,-148.041188,10035.851024
69621.153873,296.082377,74.020594,10035.851024
69621.154184,222.061783,222.061783,10342.289223
69621.154495,444.123565,-148.041188,9959.241474
69621.154806,222.061783,0.000000,10265.679673
69621.155117,148.041188,222.061783,9882.631924
69621.155428,74.020594,0.000000,10189.070123
69621.155739,0.000000,0.000000,10112.460574
69621.156050,-148.041188,0.000000,10495.508323
69621.156361,0.000000,-222.061783,10495.508323
69621.156672,-296.082377,-148.041188,9806.022374
69621.156983,0.000000,222.061783,10495.508323
69621.157294,518.144159,0.000000,10265.679673
69621.157605,74.020594,74.020594,10189.070123
69621.157916,592.164754,0.000000,9882.631924
69621.158227,148.041188,-148.041188,10189.070123
69621.158538,222.061783,0.000000,10265.679673
69621.158849,0.000000,0.000000,10265.679673
69621.159160,0.000000,0.000000,10418.898773
69621.159472,-296.082377,0.000000,10725.336972
69621.159783,0.000000,0.000000,10265.679673
69621.160094,74.020594,0.000000,10112.460574
69621.160405,0.000000,0.000000,10342.289223
69621.160716,-444.123565,592.164754,10725.336972
69621.161027,0.000000,-444.123565,10342.289223
69621.161338,592.164754,-666.185348,10112.460574
69621.161649,74.020594,-296.082377,9959.241474
69621.161960,0.000000,-222.061783,10342.289223
69621.162271,74.020594,0.000000,10495.508323
69621.162582,74.020594,0.000000,10265.679673
69621.162893,0.000000,-148.041188,10265.679673
69621.163204,-222.061783,-222.061783,10265.679673
69621.163515,0.000000,0.000000,10035.851024
69621.163826,0.000000,518.144159,9806.022374
69621.164137,0.000000,148.041188,9806.022374
69621.164448,0.000000,0.000000,10112.460574
69621.164759,0.000000,0.000000,10418.898773
69621.165070,296.082377,222.061783,9882.631924
69621.165381,222.061783,0.000000,10418.898773
69621.165692,74.020594,-148.041188,10342.289223
69621.166003,148.041188,0.000000,10189.070123
69621.166314,0.000000,148.041188,10648.727422
69621.166625,0.000000,-222.061783,10572.117872
69621.166936,-370.102971,0.000000,10265.679673
69621.167247,148.041188,0.000000,10418.898773
69621.167559,74.020594,-148.041188,10572.117872
69621.167870,74.020594,-296.082377,9806.022374
69621.168181,222.061783,0.000000,10265.679673
69621.168492,222.061783,0.000000,10112.460574
69621.168803,370.102971,74.020594,10112.460574
69621.169114,444.123565,74.020594,10189.070123
69621.169425,74.020594,-370.102971,9959.241474
69621.169736,0.000000,296.082377,9806.022374
69621.170047,0.000000,296.082377,10112.460574
69621.170358,0.000000,0.000000,10725.336972
69621.170669,0.000000,296.082377,10572.117872
69621.170980,0.000000,0.000000,10342.289223
69621.171291,-148.041188,-148.041188,10572.117872
69621.171602,-222.061783,-148.041188,10495.508323
69621.171913,222.061783,74.020594,10342.289223
69621.172224,370.102971,-518.144159,10265.679673
69621.172535,-370.102971,-222.061783,10725.336972
69621.172846,296.082377,0.000000,10418.898773
69621.173157,-370.102971,148.041188,10265.679673
69621.173468,74.020594,222.061783,10265.679673
69621.173779,0.000000,296.082377,10189.070123
69621.174090,-222.061783,0.000000,10495.508323
69621.174401,-296.082377,-296.082377,10495.508323
69621.174712,0.000000,0.000000,10418.898773
69621.175023,0.000000,0.000000,9882.631924
69621.175335,148.041188,-222.061783,10265.679673
69621.175646,0.000000,-222.061783,10265.679673
69621.175957,148.041188,0.000000,10342.289223
69621.176268,148.041188,222.061783,10112.460574
69621.176579,148.041188,0.000000,10342.289223
69621.176890,74.020594,-666.185348,10342.289223
69621.177201,-222.061783,0.000000,10189.070123
69621.177512,0.000000,74.020594,10418.898773
69621.177823,0.000000,370.102971,10648.727422
69621.178134,0.000000,0.000000,10418.898773
69621.178445,-296.082377,-148.041188,10648.727422
69621.178756,0.000000,-296.082377,10189.070123
69621.179067,222.061783,0.000000,10189.070123
69621.179378,296.082377,222.061783,9806.022374
69621.179689,0.000000,222.061783,10418.898773
69621.180000,0.000000,0.000000,10035.851024
69621.180311,74.020594,0.000000,10112.460574
69621.180622,518.144159,222.061783,10495.508323
69621.180933,74.020594,-148.041188,10418.898773
69621.181244,0.000000,-148.041188,10342.289223
69621.181555,0.000000,444.123565,10572.117872
69621.181866,0.000000,444.123565,10265.679673
69621.182177,0.000000,-444.123565,9729.412825
69621.182488,0.000000,-444.123565,10572.117872
69621.182799,222.061783,0.000000,10112.460574
69621.183110,0.000000,370.102971,10265.679673
69621.183422,74.020594,0.000000,10572.117872
69621.183733,0.000000,-148.041188,10342.289223
69621.184044,0.000000,-148.041188,10342.289223
69621.184355,370.102971,-296.082377,10112.460574
69621.184666,74.020594,0.000000,10265.679673
69621.184977,0.000000,0.000000,10572.117872
69621.185288,444.123565,0.000000,10342.289223
69621.185599,74.020594,0.000000,10495.508323
69621.185910,74.020594,222.061783,10265.679673
69621.186221,0.000000,-148.041188,10878.556072
69621.186532,74.020594,74.020594,10495.508323
69621.186843,222.061783,148.041188,10418.898773
69621.187154,148.041188,0.000000,10112.460574
69621.187465,0.000000,0.000000,10189.070123
69621.187776,0.000000,0.000000,10035.851024
69621.188087,0.000000,148.041188,10342.289223
69621.188398,0.000000,-296.082377,10418.898773
69621.188709,222.061783,-740.205942,10955.165621
69621.189020,0.000000,0.000000,10495.508323
69621.189331,0.000000,222.061783,10495.508323
69621.189642,0.000000,148.041188,10112.460574
69621.189953,148.041188,74.020594,10189.070123
69621.190264,148.041188,-148.041188,10265.679673
69621.190575,74.020594,0.000000,10035.851024
69621.190886,0.000000,296.082377,10265.679673
69621.191197,148.041188,-74.020594,9806.022374
69621.191509,0.000000,-370.102971,10035.851024
69621.191820,74.020594,0.000000,10265.679673
69621.192131,296.082377,222.061783,9806.022374
69621.192442,74.020594,-222.061783,10418.898773
69621.192753,0.000000,0.000000,10265.679673
69621.193064,74.020594,148.041188,10112.460574
69621.193375,0.000000,0.000000,9729.412825
69621.193686,0.000000,0.000000,10035.851024
69621.193997,-222.061783,0.000000,10572.117872
69621.194308,222.061783,74.020594,10418.898773
69621.194619,370.102971,222.061783,10189.070123
69621.194930,-518.144159,74.020594,9806.022374
69621.195241,0.000000,518.144159,9882.631924
69621.195552,0.000000,222.061783,9806.022374
69621.195863,0.000000,74.020594,10495.508323
69621.196174,0.000000,0.000000,10342.289223
69621.196485,0.000000,-222.061783,10342.289223
69621.196796,-296.082377,0.000000,10342.289223
69621.197107,148.041188,0.000000,10189.070123
69621.197418,296.082377,74.020594,10035.851024
69621.197729,0.000000,296.082377,11031.775171
69621.198040,296.082377,-148.041188,10112.460574
69621.198351,296.082377,222.061783,10112.460574
69621.198662,0.000000,-370.102971,10495.508323
69621.198973,0.000000,0.000000,10189.070123
69621.199285,296.082377,-222.061783,10265.679673
69621.199596,0.000000,0.000000,10342.289223
69621.199907,-148.041188,-148.041188,10418.898773
69621.200218,-148.041188,74.020594,10112.460574
69621.200529,0.000000,148.041188,10418.898773
69621.200840,0.000000,0.000000,10648.727422
69621.201151,0.000000,222.061783,10342.289223
69621.201462,-148.041188,222.061783,9806.022374
69621.201773,74.020594,74.020594,10189.070123
69621.202084,74.020594,148.041188,9959.241474
69621.202395,74.020594,0.000000,10189.070123
69621.202706,0.000000,0.000000,10418.898773
69621.203017,148.041188,-222.061783,10342.289223
69621.203328,444.123565,0.000000,10572.117872
69621.203639,148.041188,222.061783,9729.412825
69621.203950,0.000000,222.061783,10035.851024
69621.204261,74.020594,-296.082377,10342.289223
69621.204572,0.000000,0.000000,10495.508323
69621.204883,296.082377,148.041188,10265.679673
69621.205194,148.041188,74.020594,10189.070123
69621.205505,0.000000,74.020594,10189.070123
69621.205816,0.000000,0.000000,10189.070123
69621.206127,0.000000,0.000000,10265.679673
69621.206438,148.041188,-296.082377,10648.727422
69621.206749,222.061783,-444.123565,10265.679673
69621.207060,0.000000,-592.164754,10112.460574
69621.207372,-148.041188,0.000000,10342.289223
69621.207683,222.061783,370.102971,10265.679673
69621.207994,0.000000,0.000000,10418.898773
69621.208305,-222.061783,0.000000,10418.898773
69621.208616,0.000000,0.000000,9959.241474
69621.208927,370.102971,148.041188,10265.679673
69621.209238,148.041188,0.000000,9959.241474
69621.209549,0.000000,0.000000,10495.508323
69621.209860,0.000000,0.000000,10265.679673
69621.210171,74.020594,0.000000,10265.679673
69621.210482,0.000000,-370.102971,10495.508323
69621.210793,0.000000,-592.164754,10725.336972
69621.211104,0.000000,518.144159,9576.193725
69621.211415,74.020594,2368.659014,10265.679673
69621.211726,962.267725,4071.132681,10265.679673
69621.212037,-370.102971,2294.638420,10342.289223
69621.212348,-1998.556043,1036.288319,10572.117872
69621.212659,-1036.288319,3404.947333,10189.070123
69621.212970,-814.226536,4737.318029,10418.898773
69621.213281,-2368.659014,2738.761985,11797.870669
69621.213592,-2368.659014,666.185348,10725.336972
69621.213903,-1110.308913,444.123565,9652.803275
69621.214214,-1036.288319,-1110.308913,10112.460574
69621.214525,-1480.411884,-1628.453072,9806.022374
69621.214836,-1258.350101,444.123565,8963.317327
69621.215147,-1258.350101,1628.453072,10035.851024
69621.215459,-2146.597232,666.185348,11568.042020
69621.215770,-4145.153275,666.185348,10648.727422
69621.216081,-2368.659014,2294.638420,10265.679673
69621.216392,-888.247130,1924.535449,9729.412825
69621.216703,-4219.173869,3034.844362,9422.974625
69621.217014,-3997.112087,4145.153275,10801.946522
69621.217325,-1998.556043,4811.338623,10801.946522
69621.217636,-2812.782580,3256.906145,10648.727422
69621.217947,-3923.091493,2516.700203,10035.851024
69621.218258,-3256.906145,3182.885551,9806.022374
69621.218569,-4145.153275,3330.926739,10495.508323
69621.218880,-3478.967927,3034.844362,11031.775171
69621.219191,-3627.009116,1554.432478,9346.365076
69621.219502,-4737.318029,222.061783,9806.022374
69621.219813,-3034.844362,2294.638420,9193.145976
69621.220124,-2960.823768,3997.112087,9806.022374
69621.220435,-3108.864956,3256.906145,10112.460574
69621.220746,-4145.153275,2368.659014,10572.117872
69621.221057,-3775.050304,4145.153275,10495.508323
69621.221368,-3108.864956,5847.626942,9959.241474
69621.221679,-2812.782580,3997.112087,10112.460574
69621.221990,-4293.194464,3034.844362,11261.603821
69621.222301,-3627.009116,3775.050304,10418.898773
69621.222612,-2960.823768,2664.741391,10342.289223
69621.222923,-4663.297435,2960.823768,9882.631924
69621.223235,-3701.029710,4219.173869,10495.508323
69621.223546,-5107.421000,3923.091493,10495.508323
69621.223857,-6809.894666,3182.885551,11644.651570
69621.224168,-5477.523971,4219.173869,11644.651570
69621.224479,-5329.482782,3775.050304,10418.898773
69621.224790,-5921.647536,2368.659014,10725.336972
69621.225101,-4145.153275,2516.700203,10878.556072
69621.225412,-2738.761985,2738.761985,9806.022374
69621.225723,-2146.597232,2442.679609,9039.926876
69621.226034,-370.102971,2960.823768,9039.926876
69621.226345,-1184.329507,3034.844362,9346.365076
69621.226656,-2294.638420,2368.659014,9499.584175
69621.226967,-2368.659014,2516.700203,10955.165621
69621.227278,-3478.967927,1924.535449,10342.289223
69621.227589,-4293.194464,1554.432478,11108.384721
69621.227900,-4219.173869,1628.453072,11568.042020
69621.228211,-2590.720797,3478.967927,10725.336972
69621.228522,-1184.329507,4589.276840,9882.631924
69621.228833,-740.205942,4663.297435,9729.412825
69621.229144,-740.205942,5921.647536,9193.145976
69621.229455,-1184.329507,5329.482782,9346.365076
69621.229766,-3182.885551,4219.173869,10035.851024
69621.230077,-5255.462188,2812.782580,11338.213370
69621.230388,-5995.668130,2960.823768,12027.699319
69621.230699,-5329.482782,2516.700203,11261.603821
69621.231010,-4293.194464,1628.453072,10648.727422
69621.231322,-2294.638420,592.164754,9346.365076
69621.231633,-518.144159,666.185348,9039.926876
69621.231944,0.000000,1184.329507,9499.584175
69621.232255,-592.164754,2738.761985,9499.584175
69621.232566,592.164754,5625.565159,10418.898773
69621.232877,370.102971,6587.832884,9806.022374
69621.233188,-2442.679609,4441.235652,10801.946522
69621.233499,-4811.338623,1628.453072,10572.117872
69621.233810,-5699.585753,3552.988522,11721.261119
69621.234121,-4071.132681,5625.565159,11797.870669
69621.234432,-4441.235652,5107.421000,11721.261119
69621.234743,-5625.565159,2812.782580,9806.022374
69621.235054,-2960.823768,888.247130,9499.584175
69621.235365,-1702.473667,2072.576638,9729.412825
69621.235676,-666.185348,3849.070898,9806.022374
69621.235987,-222.061783,3997.112087,9806.022374
69621.236298,-2072.576638,1406.391290,9193.145976
69621.236609,-2812.782580,-962.267725,9652.803275
69621.236920,-3182.885551,0.000000,10112.460574
69621.237231,-3256.906145,3627.009116,11031.775171
69621.237542,-1628.453072,5847.626942,11568.042020
69621.237853,-2664.741391,2960.823768,11414.822920
69621.238164,-4219.173869,814.226536,10112.460574
69621.238475,-666.185348,5107.421000,8350.440928
69621.238786,296.082377,8734.430116,9882.631924
69621.239097,-4145.153275,5625.565159,11951.089769
69621.239408,-7994.224174,2368.659014,12027.699319
69621.239719,-5773.606348,2516.700203,10572.117872
69621.240030,-4367.215058,4071.132681,9959.241474
69621.240341,-5773.606348,2442.679609,11414.822920
69621.240652,-7254.018232,1406.391290,10955.165621
69621.240963,-1480.411884,4441.235652,9806.022374
69621.241274,1776.494261,6735.874072,8044.002729
69621.241585,-222.061783,1850.514855,7660.954980
69621.241896,-4145.153275,-444.123565,9729.412825
69621.242207,-2812.782580,3627.009116,9729.412825
69621.242518,-3108.864956,5921.647536,11184.994271
69621.242829,-5477.523971,1332.370696,11874.480219
69621.243140,-5921.647536,-222.061783,10265.679673
69621.243451,-2738.761985,5033.400406,9499.584175
69621.243762,-1332.370696,7920.203579,10189.070123
69621.244073,-3404.947333,4663.297435,10418.898773
69621.244383,-4959.379811,3256.906145,10342.289223
69621.244694,-2960.823768,3701.029710,9193.145976
69621.245005,-4885.359217,2590.720797,10342.289223
69621.245316,-6883.915261,2738.761985,12180.918418
69621.245627,-4959.379811,4663.297435,11108.384721
69621.245938,-3034.844362,2368.659014,11491.432470
69621.246249,-3923.091493,-4145.153275,9806.022374
69621.246560,-2590.720797,-1036.288319,8273.831378
69621.246871,1036.288319,7402.059420,7737.564530
69621.247182,2072.576638,8216.285956,10955.165621
69621.247493,-4441.235652,4071.132681,10495.508323
69621.247804,-5921.647536,4071.132681,8580.269578
69621.248115,-3923.091493,6513.812290,11031.775171
69621.248426,-6809.894666,4515.256246,13713.109414
69621.248737,-9622.677246,1258.350101,13023.623466
69621.249048,-7328.038826,2516.700203,11031.775171
69621.249359,-962.267725,4441.235652,9576.193725
69621.249670,592.164754,3775.050304,8656.879127
69621.249981,-2072.576638,1110.308913,8580.269578
69621.250292,-444.123565,222.061783,9422.974625
69621.250603,-962.267725,1554.432478,9116.536426
69621.250914,-2590.720797,3997.112087,11644.651570
69621.251225,-592.164754,1850.514855,10648.727422
69621.251536,-2590.720797,-592.164754,9269.755526
69621.251847,-3552.988522,1110.308913,9882.631924
69621.252158,1480.411884,1110.308913,10418.898773
69621.252469,-1776.494261,2812.782580,9116.536426
69621.252780,-2738.761985,7254.018232,8427.050478
69621.253091,814.226536,8660.409521,11644.651570
69621.253402,-10732.986159,3108.864956,13483.280765
69621.253713,-10140.821405,814.226536,13559.890315
69621.254024,-5107.421000,3034.844362,13023.623466
69621.254335,-5699.585753,1406.391290,9806.022374
69621.254646,-2368.659014,2146.597232,10801.946522
69621.254957,74.020594,3182.885551,10418.898773
69621.255268,-2368.659014,-962.267725,7660.954980
69621.255578,962.267725,-3182.885551,7737.564530
69621.255889,1406.391290,3997.112087,9193.145976
69621.256200,-148.041188,7328.038826,8656.879127
69621.256511,-2664.741391,666.185348,11414.822920
69621.256822,-5329.482782,-4293.194464,10265.679673
69621.257133,-222.061783,-2220.617826,7890.783629
69621.257444,-370.102971,5699.585753,11568.042020
69621.257755,-2146.597232,6661.853478,12563.966167
69621.258066,-2664.741391,4737.318029,12793.794817
69621.258377,-1184.329507,1628.453072,9422.974625
69621.258688,-1036.288319,-740.205942,6818.249932
69621.258999,-2738.761985,5551.544565,12334.137518
69621.259310,-3330.926739,7550.100608,12717.185267
69621.259621,-4885.359217,0.000000,12027.699319
69621.259932,-2664.741391,-5033.400406,11184.994271
69621.260243,592.164754,-740.205942,7048.078582
69621.260554,1924.535449,5329.482782,9116.536426
69621.260865,2960.823768,5181.441594,13483.280765
69621.261176,4959.379811,1332.370696,8580.269578
69621.261487,3849.070898,-1776.494261,4519.963438
69621.261798,3923.091493,-814.226536,7354.516781
69621.262109,2590.720797,5699.585753,11261.603821
69621.262420,-3404.947333,8290.306550,13789.718964
69621.262731,-7105.977043,1554.432478,15168.690860
69621.263042,-8290.306550,-5181.441594,12027.699319
69621.263353,-5329.482782,-1258.350101,10342.289223
69621.263664,-3552.988522,2960.823768,10955.165621
69621.263975,-5699.585753,1036.288319,11491.432470
69621.264286,4071.132681,-962.267725,9806.022374
69621.264597,-444.123565,0.000000,7431.126331
69621.264908,2812.782580,-1998.556043,7814.174080
69621.265219,1480.411884,444.123565,7737.564530
69621.265530,740.205942,592.164754,10035.851024
69621.265841,-1850.514855,-2146.597232,13559.890315
69621.266152,-2442.679609,-4219.173869,8503.660028
69621.266463,2738.761985,-2220.617826,7354.516781
69621.266774,1184.329507,-2590.720797,10265.679673
69621.267084,-3478.967927,-2294.638420,10878.556072
69621.267395,2220.617826,4071.132681,11184.994271
69621.267706,7328.038826,4219.173869,9729.412825
69621.268017,2368.659014,-1184.329507,6205.373534
69621.268328,-1702.473667,-5403.503377,7890.783629
69621.268639,-3108.864956,-1036.288319,14632.424012
69621.268950,-2146.597232,3775.050304,13483.280765
69621.269261,3034.844362,3478.967927,11414.822920
69621.269572,1628.453072,-1924.535449,6665.030833
69621.269883,-1776.494261,-7476.080014,6971.469032
69621.270194,1998.556043,-2146.597232,11338.213370
69621.270505,592.164754,6809.894666,11414.822920
69621.270816,4885.359217,5995.668130,10648.727422
69621.271127,1776.494261,-4663.297435,9269.755526
69621.271438,-4589.276840,-6291.750507,8120.612279
69621.271749,-2294.638420,1036.288319,9499.584175
69621.272060,-1702.473667,5329.482782,14019.547613
69621.272371,-6513.812290,-666.185348,15781.567259
69621.272682,-1628.453072,-3108.864956,11184.994271
69621.272993,-1554.432478,-2442.679609,8503.660028
69621.273304,1480.411884,1702.473667,8427.050478
69621.273615,9252.574275,7846.182985,9806.022374
69621.273926,2886.803174,592.164754,9039.926876
69621.274237,-5995.668130,-7698.141797,10265.679673
69621.274548,888.247130,-2886.803174,9346.365076
69621.274859,3256.906145,3997.112087,6971.469032
69621.275170,-666.185348,1480.411884,11797.870669
69621.275481,-4737.318029,-4219.173869,14096.157163
69621.275792,-666.185348,-1406.391290,10725.336972
69621.276103,2072.576638,1406.391290,7354.516781
69621.276414,5329.482782,2886.803174,8503.660028
69621.276725,296.082377,1850.514855,10035.851024
69621.277036,-2368.659014,-1258.350101,12027.699319
69621.277347,370.102971,-1258.350101,11797.870669
69621.277658,148.041188,1924.535449,7967.393179
69621.277969,4219.173869,3849.070898,9882.631924
69621.278279,-2590.720797,-2960.823768,11797.870669
69621.278590,-5773.606348,-5255.462188,12104.308868
69621.278901,3775.050304,3034.844362,9806.022374
69621.279212,6069.688724,5107.421000,8044.002729
69621.279523,2960.823768,0.000000,11338.213370
69621.279834,-2146.597232,-5329.482782,9652.803275
69621.280145,444.123565,-1258.350101,8733.488677
69621.280456,3775.050304,3627.009116,9882.631924
69621.280767,-1998.556043,3701.029710,12257.527968
69621.281078,-3552.988522,-2294.638420,13636.499864
69621.281389,-3552.988522,-4811.338623,12640.575717
69621.281700,1628.453072,370.102971,8197.221829
69621.282011,7254.018232,5329.482782,5975.544884
69621.282322,2960.823768,444.123565,10189.070123
69621.282633,-3997.112087,-5773.606348,12257.527968
69621.282944,370.102971,-1924.535449,9422.974625
69621.283255,1554.432478,74.020594,8044.002729
69621.283566,-3034.844362,1184.329507,9652.803275
69621.283877,-592.164754,2072.576638,14555.814462
69621.284188,-5921.647536,-3330.926739,13713.109414
69621.284499,-3404.947333,-3108.864956,10112.460574
69621.284810,7550.100608,3997.112087,6358.592633
69621.285121,7179.997637,5921.647536,7354.516781
69621.285432,-1110.308913,-2146.597232,11184.994271
69621.285743,-3997.112087,-5181.441594,11874.480219
69621.286054,-1036.288319,2516.700203,11338.213370
69621.286365,2516.700203,4737.318029,9576.193725
69621.286676,-666.185348,-3108.864956,9882.631924
69621.286987,-5921.647536,-6365.771101,11568.042020
69621.287298,148.041188,1036.288319,9882.631924
69621.287609,4441.235652,5255.462188,10112.460574
69621.287920,888.247130,0.000000,10265.679673
69621.288231,-1036.288319,-3701.029710,9806.022374
69621.288542,1702.473667,888.247130,9422.974625
69621.288853,3701.029710,4441.235652,11797.870669
69621.289164,-1036.288319,1702.473667,9959.241474
69621.289474,-370.102971,0.000000,9346.365076
69621.289785,-1406.391290,-3404.947333,11644.651570
69621.290096,-7920.203579,-1924.535449,13483.280765
69621.290407,-4219.173869,6143.709319,12870.404366
69621.290718,1184.329507,3775.050304,12180.918418
69621.291029,-74.020594,-3256.906145,10801.946522
69621.291340,1406.391290,-4293.194464,4060.306139
69621.291651,5699.585753,1924.535449,5669.106685
69621.291962,3108.864956,5625.565159,10955.165621
69621.292273,-296.082377,2072.576638,13483.280765
69621.292584,-3108.864956,-6069.688724,12257.527968
69621.292895,-4219.173869,-7698.141797,8810.098227
69621.293206,6143.709319,2442.679609,7890.783629
69621.293517,2590.720797,7920.203579,9269.755526
69621.293828,-5995.668130,-592.164754,14555.814462
69621.294139,-5329.482782,-6661.853478,14019.547613
69621.294450,2368.659014,1258.350101,8656.879127
69621.294761,6365.771101,5255.462188,7354.516781
69621.295072,518.144159,0.000000,10648.727422
69621.295383,-3701.029710,-4663.297435,13330.061665
69621.295694,-3552.988522,-2516.700203,9806.022374
69621.296005,2738.761985,0.000000,9499.584175
69621.296316,-2146.597232,-1184.329507,11414.822920
69621.296627,-5107.421000,-2960.823768,13406.671215
69621.296938,-2146.597232,-2368.659014,13789.718964
69621.297249,2590.720797,-3701.029710,8580.269578
69621.297560,7402.059420,2590.720797,5669.106685
69621.297871,7772.162391,3997.112087,7354.516781
69621.298182,-1184.329507,-3775.050304,12563.966167
69621.298493,-6809.894666,-4737.318029,13023.623466
69621.298804,2516.700203,3701.029710,9422.974625
69621.299115,2886.803174,5995.668130,9729.412825
69621.299426,-3478.967927,-444.123565,11491.432470
69621.299737,-3701.029710,-2738.761985,13253.452115
69621.300048,-1480.411884,-1776.494261,9499.584175
69621.300359,6069.688724,592.164754,6741.640382
69621.300669,7031.956449,3775.050304,8350.440928
69621.300980,-592.164754,888.247130,9806.022374
69621.301291,-3627.009116,-3034.844362,12563.966167
69621.301602,-296.082377,-518.144159,10189.070123
69621.301913,2072.576638,2886.803174,8656.879127
69621.302224,-1776.494261,-1258.350101,10418.898773
69621.302535,-3182.885551,-3478.967927,12717.185267
69621.302846,1332.370696,814.226536,9806.022374
69621.303157,2886.803174,3923.091493,7507.735880
69621.303468,2738.761985,2072.576638,8656.879127
69621.303779,-666.185348,1850.514855,10495.508323
69621.304090,-2220.617826,2738.761985,11951.089769
69621.304401,-3478.967927,-2590.720797,11184.994271
69621.304712,-4959.379811,222.061783,12104.308868
69621.305023,0.000000,3478.967927,8963.317327
69621.305334,592.164754,-1258.350101,10648.727422
69621.305645,-3256.906145,-5181.441594,13023.623466
69621.305956,0.000000,74.020594,8503.660028
69621.306267,7476.080014,6143.709319,6358.592633
69621.306578,2664.741391,-2590.720797,8350.440928
69621.306889,-2516.700203,-5921.647536,11184.994271
69621.307200,74.020594,3775.050304,9576.193725
69621.307511,3552.988522,6957.935855,10035.851024
69621.307822,-888.247130,-1036.288319,12257.527968
69621.308133,-5181.441594,-5107.421000,10572.117872
69621.308444,4071.132681,-666.185348,8810.098227
69621.308755,4959.379811,3330.926739,9039.926876
69621.309066,0.000000,4145.153275,11721.261119
69621.309377,1924.535449,-2294.638420,9499.584175
69621.309688,-3108.864956,-4737.318029,9039.926876
69621.309999,-814.226536,518.144159,11261.603821
69621.310310,-370.102971,4367.215058,11721.261119
69621.310621,-6883.915261,-1480.411884,14709.033562
69621.310932,-1702.473667,-6809.894666,12180.918418
69621.311243,4515.256246,-2812.782580,6128.763984
69621.311554,4959.379811,962.267725,4519.963438
69621.311865,814.226536,1184.329507,9959.241474
69621.312175,-4441.235652,2294.638420,15475.129060
69621.312486,-7994.224174,-1702.473667,14019.547613
69621.312797,-4219.173869,-2960.823768,11491.432470
69621.313108,-1036.288319,1184.329507,9499.584175
69621.313419,1776.494261,3404.947333,8963.317327
69621.313730,148.041188,-3404.947333,10418.898773
69621.314041,0.000000,-6883.915261,9193.145976
69621.314352,6809.894666,3330.926739,7354.516781
69621.314663,7328.038826,6513.812290,7584.345430
69621.314974,-2368.659014,-1184.329507,12027.699319
69621.315285,-5625.565159,-4367.215058,12334.137518
69621.315596,888.247130,-222.061783,8810.098227
69621.315907,2146.597232,2442.679609,9806.022374
69621.316218,-1480.411884,-888.247130,11797.870669
69621.316529,-1480.411884,-4589.276840,10418.898773
69621.316840,-666.185348,-3478.967927,9346.365076
69621.317151,3849.070898,2664.741391,9193.145976
69621.317462,5107.421000,6735.874072,8656.879127
69621.317773,-222.061783,2368.659014,10495.508323
69621.318084,-4663.297435,-3775.050304,12027.699319
69621.318395,-3404.947333,518.144159,11338.213370
69621.318706,1406.391290,5329.482782,10418.898773
69621.319017,-1258.350101,-296.082377,11414.822920
69621.319328,-5033.400406,-5921.647536,12563.966167
69621.319639,-1406.391290,-2738.761985,10342.289223
69621.319950,6957.935855,2738.761985,6818.249932
69621.320261,6143.709319,5107.421000,7660.954980
69621.320572,0.000000,3182.885551,9116.536426
69621.320883,-2294.638420,1850.514855,11951.089769
69621.321194,-3330.926739,-1332.370696,14019.547613
69621.321505,-3997.112087,-1924.535449,9269.755526
69621.321816,666.185348,1184.329507,9729.412825
69621.322127,148.041188,-1628.453072,9269.755526
69621.322438,-1702.473667,-2072.576638,10878.556072
69621.322749,2664.741391,-518.144159,10572.117872
69621.323060,4663.297435,1554.432478,7431.126331
69621.323370,5921.647536,4737.318029,6741.640382
69621.323681,3478.967927,74.020594,10725.336972
69621.323992,-4293.194464,-3108.864956,14096.157163
69621.324303,-2738.761985,-518.144159,9652.803275
69621.324614,4737.318029,3478.967927,9806.022374
69621.324925,-296.082377,-1554.432478,11338.213370
69621.325236,-4959.379811,-6069.688724,10265.679673
69621.325547,3108.864956,-666.185348,10035.851024
69621.325858,5551.544565,5847.626942,8503.660028
69621.326169,4441.235652,444.123565,8044.002729
69621.326480,-296.082377,-3552.988522,10878.556072
69621.326791,-4589.276840,-2368.659014,11951.089769
69621.327102,-888.247130,592.164754,11721.261119
69621.327413,-1554.432478,962.267725,12410.747068
69621.327724,-4885.359217,-4515.256246,11338.213370
69621.328035,-2442.679609,-3627.009116,11184.994271
69621.328346,74.020594,1332.370696,11184.994271
69621.328657,1184.329507,3182.885551,9422.974625
69621.328968,3552.988522,2960.823768,8886.707777
69621.329279,222.061783,-1184.329507,7890.783629
69621.329590,888.247130,-1702.473667,8886.707777
69621.329901,2442.679609,2072.576638,10035.851024
69621.330212,-3330.926739,2664.741391,10189.070123
69621.330523,-4145.153275,0.000000,13100.233016
69621.330834,-2886.803174,-4663.297435,13023.623466
69621.331145,-1036.288319,-4515.256246,7660.954980
69621.331456,4737.318029,4145.153275,7354.516781
69621.331767,7105.977043,5255.462188,8044.002729
69621.332078,1406.391290,-888.247130,9116.536426
69621.332389,-962.267725,-3330.926739,10725.336972
69621.332700,1850.514855,1480.411884,9576.193725
69621.333011,-296.082377,3849.070898,11414.822920
69621.333322,-3330.926739,-370.102971,12487.356617
69621.333633,-3034.844362,-2516.700203,12334.137518
69621.333944,-518.144159,-1850.514855,10955.165621
69621.334255,3034.844362,592.164754,8197.221829
69621.334565,2812.782580,4071.132681,9499.584175
69621.334876,1702.473667,2368.659014,10955.165621
69621.335187,0.000000,-814.226536,10265.679673
69621.335498,-1332.370696,-740.205942,9422.974625
69621.335809,-888.247130,1776.494261,10801.946522
69621.336120,-1924.535449,-222.061783,11491.432470
69621.336431,-2812.782580,-4663.297435,12640.575717
69621.336742,-1184.329507,-3256.906145,11108.384721
69621.337054,7402.059420,3330.926739,6205.373534
69621.337365,9030.512492,2294.638420,6741.640382
69621.337676,-2072.576638,-1998.556043,9346.365076
69621.337987,-2220.617826,-370.102971,13176.842566
69621.338298,2146.597232,3701.029710,12410.747068
69621.338609,-370.102971,3923.091493,11184.994271
69621.338920,-1480.411884,-2442.679609,9039.926876
69621.339231,-5699.585753,-9400.615463,10418.898773
69621.339542,-3034.844362,-4959.379811,12410.747068
69621.339853,1332.370696,5107.421000,11874.480219
69621.340164,1110.308913,5921.647536,11031.775171
69621.340475,-592.164754,-3923.091493,9499.584175
69621.340786,-888.247130,-5403.503377,10418.898773
69621.341098,1998.556043,2664.741391,8580.269578
69621.341409,4737.318029,6143.709319,9499.584175
69621.341720,-666.185348,-1924.535449,12104.308868
69621.342031,-4737.318029,-7105.977043,11721.261119
69621.342342,296.082377,-2664.741391,8503.660028
69621.342653,3034.844362,3182.885551,8886.707777
69621.342964,1406.391290,4811.338623,12027.699319
69621.343275,814.226536,1776.494261,12027.699319
69621.343586,-1702.473667,-1184.329507,10572.117872
69621.343897,74.020594,-1628.453072,9499.584175
69621.344208,3552.988522,2960.823768,8656.879127
69621.344519,2886.803174,3478.967927,10878.556072
69621.344830,-3849.070898,-2960.823768,14632.424012
69621.345141,-3775.050304,-4589.276840,11261.603821
69621.345453,2220.617826,518.144159,7201.297681
69621.345764,1258.350101,2738.761985,9269.755526
69621.346075,-962.267725,1332.370696,13176.842566
69621.346386,-2220.617826,-1850.514855,10878.556072
69621.346697,-1480.411884,-962.267725,9116.536426
69621.347008,2590.720797,4145.153275,9116.536426
69621.347319,3849.070898,2886.803174,9882.631924
69621.347630,-7254.018232,-3627.009116,10495.508323
69621.347941,-6143.709319,-4737.318029,13100.233016
69621.348252,2664.741391,3478.967927,10189.070123
69621.348563,1702.473667,5995.668130,8273.831378
69621.348874,-814.226536,-1850.514855,11184.994271
69621.349185,-2516.700203,-3849.070898,10035.851024
69621.349496,666.185348,814.226536,9652.803275
69621.349808,2516.700203,4959.379811,9652.803275
69621.350119,814.226536,2368.659014,10418.898773
69621.350430,-2812.782580,-5181.441594,10878.556072
69621.350741,-2516.700203,-4885.359217,11031.775171
69621.351052,592.164754,-518.144159,9346.365076
69621.351363,2664.741391,1924.535449,9652.803275
69621.351674,1332.370696,296.082377,10572.117872
69621.351985,-1702.473667,-1480.411884,11338.213370
69621.352296,1036.288319,370.102971,9652.803275
69621.352607,1332.370696,3552.988522,9346.365076
69621.352918,1110.308913,2812.782580,11568.042020
69621.353229,-370.102971,-740.205942,12793.794817
69621.353540,-1258.350101,-5107.421000,8963.317327
69621.353852,1628.453072,-2590.720797,8350.440928
69621.354163,2220.617826,1924.535449,8963.317327
69621.354474,222.061783,3923.091493,10878.556072
69621.354785,-3404.947333,148.041188,15015.471761
69621.355096,-6365.771101,-1998.556043,14019.547613
69621.355407,296.082377,1998.556043,9806.022374
69621.355718,5625.565159,2294.638420,7737.564530
69621.356029,148.041188,-3627.009116,8503.660028
69621.356340,-2368.659014,-4663.297435,11261.603821
69621.356651,962.267725,-1110.308913,11568.042020
69621.356962,1332.370696,2812.782580,9116.536426
69621.357273,7254.018232,2442.679609,8656.879127
69621.357584,4441.235652,-3256.906145,8503.660028
69621.357895,-2886.803174,-2220.617826,8963.317327
69621.358207,5847.626942,3404.947333,9729.412825
69621.358518,814.226536,2886.803174,11261.603821
69621.358829,-2368.659014,-1332.370696,11797.870669
69621.359140,-1036.288319,-962.267725,11414.822920
69621.359451,-1036.288319,-2146.597232,9193.145976
69621.359762,592.164754,1332.370696,9806.022374
69621.360073,1628.453072,1998.556043,10342.289223
69621.360384,-4367.215058,-3478.967927,11261.603821
69621.360695,-5107.421000,-3478.967927,12180.918418
69621.361006,296.082377,3256.906145,10495.508323
69621.361317,1628.453072,3775.050304,10495.508323
69621.361628,-1628.453072,-4811.338623,11644.651570
69621.361939,-3701.029710,-5773.606348,10725.336972
69621.362251,3552.988522,3330.926739,8350.440928
69621.362562,5403.503377,5847.626942,9193.145976
69621.362873,-5107.421000,-2738.761985,10495.508323
69621.363184,-5107.421000,-2442.679609,12793.794817
69621.363495,74.020594,1036.288319,9499.584175
69621.363806,1258.350101,3108.864956,9422.974625
69621.364117,1406.391290,1776.494261,11721.261119
69621.364428,148.041188,-1776.494261,9269.755526
69621.364739,1702.473667,-2516.700203,9422.974625
69621.365050,4145.153275,-592.164754,9193.145976
69621.365361,4367.215058,1406.391290,8044.002729
69621.365672,2072.576638,1184.329507,8810.098227
69621.365983,-148.041188,-888.247130,11644.651570
69621.366294,-3997.112087,-1776.494261,12257.527968
69621.366606,-3775.050304,-1036.288319,11261.603821
69621.366917,1184.329507,1184.329507,10878.556072
69621.367228,1480.411884,0.000000,10112.460574
69621.367539,-2368.659014,-3034.844362,9193.145976
69621.367850,2368.659014,-1628.453072,7890.783629
69621.368161,4071.132681,4367.215058,9269.755526
69621.368472,-3034.844362,3997.112087,13330.061665
69621.368783,-5995.668130,-2664.741391,15245.300410
69621.369094,-3775.050304,-6217.729913,13100.233016
69621.369405,1850.514855,-592.164754,5669.106685
69621.369716,1628.453072,3404.947333,7431.126331
69621.370027,-2146.597232,-666.185348,13789.718964
69621.370338,-3404.947333,-2072.576638,13866.328514
69621.370649,-518.144159,74.020594,9499.584175
69621.370961,962.267725,444.123565,6052.154434
69621.371272,-222.061783,1628.453072,10648.727422
69621.371583,1110.308913,2072.576638,13406.671215
69621.371894,740.205942,222.061783,10725.336972
69621.372205,-2812.782580,-3108.864956,8810.098227
69621.372516,4071.132681,296.082377,6818.249932
69621.372827,4959.379811,3701.029710,8273.831378
69621.373138,-3404.947333,-2960.823768,12334.137518
69621.373449,-3997.112087,-3997.112087,13559.890315
69621.373760,2812.782580,2442.679609,8810.098227
69621.374071,5995.668130,4885.359217,8656.879127
69621.374382,1480.411884,-1184.329507,9882.631924
69621.374693,-3923.091493,-4737.318029,11184.994271
69621.375005,-666.185348,2220.617826,11338.213370
69621.375316,6809.894666,7772.162391,9499.584175
69621.375627,666.185348,-296.082377,9652.803275
69621.375938,-6809.894666,-7846.182985,12563.966167
69621.376249,0.000000,-1776.494261,10265.679673
69621.376560,5625.565159,6809.894666,8197.221829
69621.376871,1998.556043,2664.741391,10035.851024
69621.377182,-4219.173869,-6439.791695,11721.261119
69621.377493,-888.247130,-4663.297435,10801.946522
69621.377804,518.144159,1258.350101,8810.098227
69621.378115,-444.123565,3404.947333,11184.994271
69621.378426,-2072.576638,1406.391290,12793.794817
69621.378737,-3034.844362,-2220.617826,11874.480219
69621.379048,-1184.329507,-2664.741391,10035.851024
69621.379360,888.247130,-888.247130,7584.345430
69621.379671,3923.091493,2442.679609,8656.879127
69621.379982,1184.329507,2590.720797,12640.575717
69621.380293,-3701.029710,-2072.576638,13176.842566
69621.380604,-2812.782580,-3330.926739,9652.803275
69621.380915,4737.318029,2146.597232,7660.954980
69621.381226,3034.844362,5551.544565,8503.660028
69621.381537,-3775.050304,-1702.473667,12563.966167
69621.381848,-5847.626942,-5625.565159,14479.204912
69621.382159,740.205942,-222.061783,9499.584175
69621.382470,6883.915261,5107.421000,6971.469032
69621.382781,1628.453072,1406.391290,9806.022374
69621.383092,-1110.308913,-3330.926739,11184.994271
69621.383403,-1332.370696,-814.226536,10955.165621
69621.383715,2886.803174,3775.050304,10112.460574
69621.384026,3627.009116,1480.411884,9499.584175
69621.384337,-962.267725,-2072.576638,9806.022374
69621.384648,-962.267725,-3034.844362,11108.384721
69621.384959,0.000000,962.267725,10035.851024
69621.385270,1480.411884,2960.823768,9729.412825
69621.385581,1702.473667,444.123565,9806.022374
69621.385892,-1110.308913,-3108.864956,10572.117872
69621.386203,-4293.194464,-3108.864956,11184.994271
69621.386514,-296.082377,814.226536,10955.165621
69621.386825,1332.370696,2294.638420,10801.946522
69621.387136,-1924.535449,-3034.844362,11338.213370
69621.387447,-2886.803174,-7772.162391,11338.213370
69621.387759,888.247130,-3478.967927,8427.050478
69621.388070,6365.771101,1776.494261,7967.393179
69621.388381,4219.173869,1332.370696,9346.365076
69621.388692,-370.102971,-5033.400406,11184.994271
69621.389003,-2812.782580,-5477.523971,12180.918418
69621.389314,0.000000,888.247130,10572.117872
69621.389625,3701.029710,3256.906145,10342.289223
69621.389936,962.267725,-2072.576638,10495.508323
69621.390247,-370.102971,-5551.544565,11568.042020
69621.390558,1776.494261,-2516.700203,10265.679673
69621.390869,5403.503377,-740.205942,7660.954980
69621.391180,3330.926739,2590.720797,7737.564530
69621.391491,7624.121203,1036.288319,9806.022374
69621.391802,-148.041188,-1776.494261,13100.233016
69621.392114,0.000000,-5625.565159,8963.317327
69621.392425,4441.235652,592.164754,9346.365076
69621.392736,8142.265362,4071.132681,7431.126331
69621.393047,4071.132681,-814.226536,11184.994271
69621.393358,-888.247130,-7698.141797,13023.623466
69621.393669,1406.391290,-6365.771101,9882.631924
69621.393980,4145.153275,2960.823768,10955.165621
69621.394291,3849.070898,2886.803174,8810.098227
69621.394602,-4145.153275,-2516.700203,14402.595362
69621.394913,-6143.709319,-6661.853478,14402.595362
69621.395224,2220.617826,-2368.659014,12257.527968
69621.395535,9030.512492,1036.288319,7048.078582
69621.395846,7698.141797,-4515.256246,5822.325785
69621.396157,4811.338623,-7031.956449,8810.098227
69621.396469,6365.771101,-4959.379811,9039.926876
69621.396780,5551.544565,-3034.844362,8656.879127
69621.397091,1110.308913,-4515.256246,10725.336972
69621.397402,-1702.473667,-4515.256246,14785.643111
69621.397713,-1850.514855,-3552.988522,14096.157163
69621.398024,4145.153275,-6439.791695,9346.365076
69621.398335,9844.739029,-8290.306550,3907.087040
69621.398646,6069.688724,-4293.194464,5286.058936
69621.398957,4145.153275,370.102971,12180.918418
69621.399268,-1110.308913,-666.185348,15398.519510
69621.399579,-3330.926739,-3627.009116,13789.718964
69621.399890,3552.988522,-4737.318029,7737.564530
69621.400201,1998.556043,-3034.844362,8044.002729
69621.400513,0.000000,-1480.411884,13942.938064
69621.400824,3997.112087,-1406.391290,14019.547613
69621.401135,6513.812290,-5921.647536,8810.098227
69621.401446,10658.965565,-8956.491898,2604.724693
69621.401757,12657.521608,-4589.276840,4060.306139
69621.402068,3256.906145,1036.288319,10495.508323
69621.402379,-2442.679609,1702.473667,17083.929605
69621.402690,-2220.617826,-1554.432478,15781.567259
69621.403001,0.000000,-7105.977043,8580.269578
69621.403312,4737.318029,-6735.874072,8120.612279
69621.403623,4293.194464,-2590.720797,10725.336972
69621.403934,1850.514855,-296.082377,14479.204912
69621.404245,5921.647536,-1332.370696,12027.699319
69621.404556,9770.718434,-3997.112087,5515.887586
69621.404868,4885.359217,-3627.009116,6588.421283
69621.405179,-666.185348,-888.247130,13789.718964
69621.405490,-1776.494261,-1110.308913,15321.909960
69621.405801,-666.185348,-6069.688724,12410.747068
69621.406112,3182.885551,-9178.553681,9806.022374
69621.406423,6513.812290,-6217.729913,6128.763984
69621.406734,6735.874072,-814.226536,9269.755526
69621.407045,5255.462188,-1406.391290,11261.603821
69621.407356,4959.379811,-4589.276840,8656.879127
69621.407667,4515.256246,-4811.338623,7737.564530
69621.407978,2368.659014,-2368.659014,10725.336972
69621.408289,-1406.391290,-1702.473667,13866.328514
69621.408600,0.000000,-2368.659014,12410.747068
69621.408911,3552.988522,-2368.659014,8580.269578
69621.409223,7254.018232,-4293.194464,7967.393179
69621.409534,5329.482782,-4589.276840,7660.954980
69621.409845,2294.638420,-2294.638420,9499.584175
69621.410156,2220.617826,-1036.288319,13330.061665
69621.410467,2516.700203,-3182.885551,10878.556072
69621.410778,1998.556043,-3775.050304,8580.269578
69621.411089,2368.659014,-2146.597232,11184.994271
69621.411400,1332.370696,-3701.029710,12334.137518
69621.411711,1554.432478,-5921.647536,11031.775171
69621.412022,3627.009116,-5403.503377,9499.584175
69621.412333,8068.244768,-3182.885551,7507.735880
69621.412644,9104.533087,-1850.514855,8656.879127
69621.412955,3108.864956,-1480.411884,12870.404366
69621.413267,740.205942,-2072.576638,12257.527968
69621.413578,2960.823768,-962.267725,11031.775171
69621.413889,3404.947333,-222.061783,10189.070123
69621.414200,2368.659014,-1332.370696,11261.603821
69621.414511,1036.288319,-3330.926739,12180.918418
69621.414822,222.061783,-4885.359217,11414.822920
69621.415133,4737.318029,-3256.906145,9193.145976
69621.415444,7105.977043,-1110.308913,7354.516781
69621.415755,4145.153275,-4293.194464,8963.317327
69621.416066,-1332.370696,-6439.791695,13866.328514
69621.416377,-296.082377,-3775.050304,11644.651570
69621.416688,6661.853478,-666.185348,8580.269578
69621.416999,7846.182985,-2368.659014,8503.660028
69621.417310,3775.050304,-6143.709319,9039.926876
69621.417622,962.267725,-7328.038826,10572.117872
69621.417933,2368.659014,-4959.379811,11414.822920
69621.418244,5551.544565,-888.247130,8810.098227
69621.418555,3997.112087,-296.082377,8963.317327
69621.418866,-814.226536,-3330.926739,12870.404366
69621.419177,-1258.350101,-2960.823768,13176.842566
69621.419488,1258.350101,-2812.782580,10801.946522
69621.419799,1998.556043,-4441.235652,10035.851024
69621.420110,4219.173869,-2738.761985,9576.193725
69621.420421,5551.544565,-962.267725,9576.193725
69621.420732,2294.638420,-3627.009116,10112.460574
69621.421043,2368.659014,-4885.359217,10265.679673
69621.421354,5107.421000,-4145.153275,8427.050478
69621.421665,2590.720797,-3034.844362,10035.851024
69621.421977,814.226536,-3256.906145,12410.747068
69621.422288,2368.659014,-3034.844362,12257.527968
69621.422599,4515.256246,-2516.700203,10112.460574
69621.422910,7105.977043,-3330.926739,8044.002729
69621.423221,7476.080014,-3256.906145,7660.954980
69621.423532,4737.318029,-1776.494261,9576.193725
69621.423843,2368.659014,-1850.514855,13023.623466
69621.424154,1406.391290,-3256.906145,13023.623466
69621.424465,2294.638420,-3627.009116,11108.384721
69621.424776,2442.679609,-2664.741391,10955.165621
69621.425087,3552.988522,-2294.638420,11184.994271
69621.425398,3330.926739,-2886.803174,10878.556072
69621.425709,4737.318029,-3256.906145,9959.241474
69621.426021,5921.647536,-3923.091493,8580.269578
69621.426332,3849.070898,-4071.132681,9346.365076
69621.426643,740.205942,-2294.638420,11721.261119
69621.426954,740.205942,-2294.638420,12180.918418
69621.427265,1554.432478,-3997.112087,11184.994271
69621.427576,1924.535449,-5403.503377,10112.460574
69621.427887,4145.153275,-4071.132681,9652.803275
69621.428198,4959.379811,-2960.823768,9729.412825
69621.428509,4959.379811,-3034.844362,9806.022374
69621.428820,6439.791695,-2960.823768,8886.707777
69621.429131,6291.750507,-2146.597232,8197.221829
69621.429442,2738.761985,-1998.556043,10342.289223
69621.429753,296.082377,-1628.453072,12793.794817
69621.430064,0.000000,-1998.556043,12257.527968
69621.430376,962.267725,-2886.803174,10648.727422
69621.430687,3256.906145,-2812.782580,9806.022374
69621.430998,4071.132681,-2294.638420,9116.536426
69621.431309,2664.741391,-2442.679609,9806.022374
69621.431620,3404.947333,-1850.514855,10648.727422
69621.431931,4811.338623,-1258.350101,8886.707777
69621.432242,3701.029710,-2442.679609,9039.926876
69621.432553,1924.535449,-3108.864956,10878.556072
69621.432864,1628.453072,-3256.906145,11261.603821
69621.433175,888.247130,-3923.091493,11184.994271
69621.433486,1998.556043,-4515.256246,10878.556072
69621.433797,4737.318029,-1702.473667,9269.755526
69621.434108,5551.544565,1184.329507,9039.926876
69621.434419,3478.967927,222.061783,10572.117872
69621.434731,1110.308913,-666.185348,11031.775171
69621.435042,1110.308913,-518.144159,10342.289223
69621.435353,-222.061783,74.020594,11491.432470
69621.435664,-2368.659014,-222.061783,12717.185267
69621.435975,-2960.823768,-1850.514855,12257.527968
69621.436286,-1258.350101,-2442.679609,11108.384721
69621.436597,666.185348,-3330.926739,9959.241474
69621.436908,2220.617826,-4293.194464,7814.174080
69621.437219,1480.411884,-3108.864956,8733.488677
69621.437530,1332.370696,-296.082377,9806.022374
69621.437841,2664.741391,370.102971,10955.165621
69621.438152,222.061783,-3034.844362,9882.631924
69621.438463,74.020594,-3256.906145,9116.536426
69621.438775,2590.720797,1036.288319,8580.269578
69621.439086,1184.329507,2368.659014,10342.289223
69621.439397,-3330.926739,444.123565,13253.452115
69621.439708,-2960.823768,296.082377,12180.918418
69621.440019,0.000000,1924.535449,11031.775171
69621.440330,1628.453072,1776.494261,9882.631924
69621.440641,148.041188,740.205942,10112.460574
69621.440952,-1258.350101,-74.020594,10342.289223
69621.441263,-1924.535449,-444.123565,11568.042020
69621.441574,740.205942,-1776.494261,10265.679673
69621.441885,-148.041188,-2738.761985,8656.879127
69621.442196,-296.082377,-2294.638420,10035.851024
69621.442507,0.000000,222.061783,11184.994271
69621.442819,962.267725,1110.308913,10572.117872
69621.443130,1184.329507,-962.267725,9346.365076
69621.443441,296.082377,-740.205942,8886.707777
69621.443752,-296.082377,2368.659014,9729.412825
69621.444063,-1702.473667,2590.720797,12180.918418
69621.444374,-2812.782580,888.247130,11338.213370
69621.444685,-2516.700203,0.000000,10572.117872
69621.444996,-888.247130,592.164754,10189.070123
69621.445307,-2886.803174,74.020594,12257.527968
69621.445618,-2368.659014,-740.205942,11644.651570
69621.445929,1332.370696,-1258.350101,9576.193725
69621.446240,2886.803174,-2294.638420,7890.783629
69621.446552,2368.659014,-1776.494261,8810.098227
69621.446863,1850.514855,0.000000,9269.755526
69621.447174,518.144159,370.102971,10112.460574
69621.447485,0.000000,-592.164754,10112.460574
69621.447796,1036.288319,74.020594,9422.974625
69621.448107,-444.123565,222.061783,10342.289223
69621.448418,-2368.659014,1776.494261,12104.308868
69621.448729,-962.267725,2516.700203,11951.089769
69621.449040,296.082377,740.205942,9652.803275
69621.449351,814.226536,-148.041188,9422.974625
69621.449662,1702.473667,592.164754,9806.022374
69621.449973,888.247130,296.082377,11874.480219
69621.450284,-1702.473667,-666.185348,11568.042020
69621.450596,666.185348,-1776.494261,10265.679673
69621.450907,2442.679609,-1036.288319,9652.803275
69621.451218,1554.432478,-1332.370696,9959.241474
69621.451529,0.000000,-888.247130,11108.384721
69621.451840,370.102971,0.000000,10955.165621
69621.452151,962.267725,518.144159,10725.336972
69621.452462,888.247130,962.267725,9269.755526
69621.452773,370.102971,296.082377,9959.241474
69621.453084,-1554.432478,-74.020594,11874.480219
69621.453395,-1480.411884,296.082377,11338.213370
69621.453706,74.020594,1110.308913,10572.117872
69621.454017,518.144159,-370.102971,9806.022374
69621.454329,370.102971,-888.247130,9959.241474
69621.454640,296.082377,0.000000,10725.336972
69621.454951,1036.288319,296.082377,10265.679673
69621.455262,1184.329507,-296.082377,9193.145976
69621.455573,1406.391290,0.000000,8656.879127
69621.455884,962.267725,-444.123565,9806.022374
69621.456195,-888.247130,-222.061783,10342.289223
69621.456506,-1258.350101,444.123565,11108.384721
69621.456817,-666.185348,740.205942,10265.679673
69621.457128,-518.144159,148.041188,10035.851024
69621.457439,-1184.329507,74.020594,10342.289223
69621.457750,-1036.288319,370.102971,10265.679673
69621.458062,-370.102971,222.061783,10725.336972
69621.458373,222.061783,0.000000,10189.070123
69621.458684,1554.432478,148.041188,9576.193725
69621.458995,1406.391290,148.041188,9499.584175
69621.459306,0.000000,-370.102971,10572.117872
69621.459617,-296.082377,296.082377,11031.775171
69621.459928,814.226536,666.185348,10725.336972
69621.460239,296.082377,0.000000,10725.336972
69621.460550,-370.102971,-592.164754,10418.898773
69621.460861,-888.247130,74.020594,10878.556072
69621.461172,-444.123565,444.123565,10801.946522
69621.461483,0.000000,-370.102971,10801.946522
69621.461794,74.020594,-370.102971,9882.631924
69621.462106,444.123565,74.020594,9882.631924
69621.462417,222.061783,592.164754,10725.336972
69621.462728,222.061783,222.061783,9959.241474
69621.463039,518.144159,222.061783,9882.631924
69621.463350,518.144159,-296.082377,9806.022374
69621.463661,222.061783,0.000000,10648.727422
69621.463972,-518.144159,518.144159,10725.336972
69621.464283,-296.082377,0.000000,10418.898773
69621.464594,-592.164754,-222.061783,10418.898773
69621.464905,0.000000,-148.041188,10418.898773
69621.465216,0.000000,0.000000,9652.803275
